person, block, runNumber, visualise, trialNumber, targetPresent, responseTime, response
5, coloured, 1, no, 1, 1, 1.002386, 1
5, coloured, 1, no, 2, 1, 0.628573, 1
5, coloured, 1, no, 3, 0, 0.473168, -1
5, coloured, 1, no, 4, 1, 0.414353, 1
5, coloured, 2, no, 1, 0, 0.671297, -1
5, coloured, 2, no, 2, 1, 0.780302, 1
5, coloured, 2, no, 3, 0, 1.008551, 1
5, coloured, 3, no, 1, 0, 0.604498, -1
5, coloured, 3, no, 2, 1, 0.810641, 1
5, coloured, 3, no, 3, 0, 0.742282, -1
5, coloured, 3, no, 4, 1, 0.575765, -1
5, coloured, 4, yes, 1, 1, NaN, NaN
5, coloured, 4, yes, 2, 1, NaN, NaN
5, coloured, 4, yes, 3, 1, 0.962956, 1
5, coloured, 4, yes, 4, 0, 0.659630, -1
5, coloured, 5, no, 1, 1, 0.308038, 1
5, coloured, 5, no, 2, 0, 0.393256, -1
5, coloured, 5, no, 3, 1, 0.646881, 1
5, coloured, 5, no, 4, 0, 0.784950, -1
5, coloured, 6, no, 1, 0, 0.434322, 1
5, coloured, 6, no, 2, 0, 0.382085, -1
5, coloured, 6, no, 3, 1, 0.346204, 1
5, coloured, 6, no, 4, 0, 0.313807, -1
5, coloured, 6, no, 5, 1, 0.346330, 1
5, coloured, 7, no, 1, 1, 0.395900, -1
5, coloured, 7, no, 2, 1, 0.340598, 1
5, coloured, 7, no, 3, 1, 0.331692, 1
5, coloured, 8, yes, 1, 1, NaN, NaN
5, coloured, 8, yes, 2, 1, NaN, NaN
5, coloured, 8, yes, 3, 0, 0.878883, -1
5, coloured, 8, yes, 4, 1, 0.498163, 1
5, coloured, 9, yes, 1, 0, NaN, NaN
5, coloured, 9, yes, 2, 1, NaN, NaN
5, coloured, 9, yes, 3, 1, 0.626502, -1
5, coloured, 10, yes, 1, 1, NaN, NaN
5, coloured, 10, yes, 2, 0, NaN, NaN
5, coloured, 10, yes, 3, 1, 0.447029, 1
5, coloured, 11, no, 1, 1, 0.583176, 1
5, coloured, 11, no, 2, 1, 0.387869, 1
5, coloured, 11, no, 3, 1, 0.370019, 1
5, coloured, 11, no, 4, 1, 0.333735, 1
5, coloured, 11, no, 5, 1, 0.310367, 1
5, coloured, 12, no, 1, 1, 0.426565, 1
5, coloured, 12, no, 2, 0, 0.534738, -1
5, coloured, 12, no, 3, 1, 0.335404, 1
5, coloured, 13, no, 1, 0, 0.490030, -1
5, coloured, 13, no, 2, 1, 0.400194, 1
5, coloured, 13, no, 3, 0, 0.396519, -1
5, coloured, 13, no, 4, 1, 0.363497, 1
5, coloured, 13, no, 5, 0, 0.580529, -1
5, coloured, 14, yes, 1, 0, NaN, NaN
5, coloured, 14, yes, 2, 1, NaN, NaN
5, coloured, 14, yes, 3, 1, 0.479050, 1
5, coloured, 15, yes, 1, 1, NaN, NaN
5, coloured, 15, yes, 2, 1, NaN, NaN
5, coloured, 15, yes, 3, 1, 0.470509, 1
5, coloured, 16, no, 1, 0, 0.466198, -1
5, coloured, 16, no, 2, 1, 0.484749, 1
5, coloured, 16, no, 3, 0, 0.519790, -1
5, coloured, 17, no, 1, 0, 0.500592, -1
5, coloured, 17, no, 2, 0, 0.746636, -1
5, coloured, 17, no, 3, 0, 0.466973, -1
5, coloured, 18, yes, 1, 0, NaN, NaN
5, coloured, 18, yes, 2, 1, NaN, NaN
5, coloured, 18, yes, 3, 1, 0.273092, 1
5, coloured, 18, yes, 4, 0, 0.435907, -1
5, coloured, 19, no, 1, 1, 0.367467, 1
5, coloured, 19, no, 2, 1, 0.350731, 1
5, coloured, 19, no, 3, 0, 0.444014, -1
5, coloured, 20, yes, 1, 1, NaN, NaN
5, coloured, 20, yes, 2, 1, NaN, NaN
5, coloured, 20, yes, 3, 0, 0.706832, -1
5, coloured, 21, yes, 1, 1, NaN, NaN
5, coloured, 21, yes, 2, 1, NaN, NaN
5, coloured, 21, yes, 3, 0, 0.697721, 1
5, coloured, 21, yes, 4, 0, 0.768229, 1
5, coloured, 21, yes, 5, 0, 0.351764, -1
5, coloured, 22, yes, 1, 0, NaN, NaN
5, coloured, 22, yes, 2, 1, NaN, NaN
5, coloured, 22, yes, 3, 0, 0.712078, -1
5, coloured, 22, yes, 4, 0, 0.497506, -1
5, coloured, 22, yes, 5, 0, 0.530569, -1
5, coloured, 23, yes, 1, 1, NaN, NaN
5, coloured, 23, yes, 2, 1, NaN, NaN
5, coloured, 23, yes, 3, 0, 0.561443, -1
5, coloured, 23, yes, 4, 0, 0.438537, -1
5, coloured, 24, no, 1, 0, 0.367403, -1
5, coloured, 24, no, 2, 0, 0.409703, -1
5, coloured, 24, no, 3, 1, 0.432969, 1
5, coloured, 25, yes, 1, 0, NaN, NaN
5, coloured, 25, yes, 2, 0, NaN, NaN
5, coloured, 25, yes, 3, 0, 0.581347, -1
5, coloured, 26, yes, 1, 1, NaN, NaN
5, coloured, 26, yes, 2, 1, NaN, NaN
5, coloured, 26, yes, 3, 1, 0.551179, -1
5, coloured, 27, no, 1, 1, 0.550326, 1
5, coloured, 27, no, 2, 1, 0.430401, 1
5, coloured, 27, no, 3, 1, 0.375049, 1
5, coloured, 28, no, 1, 0, 0.387467, -1
5, coloured, 28, no, 2, 0, 0.467097, -1
5, coloured, 28, no, 3, 0, 0.364523, 1
5, coloured, 29, yes, 1, 1, NaN, NaN
5, coloured, 29, yes, 2, 1, NaN, NaN
5, coloured, 29, yes, 3, 0, 0.845412, -1
5, coloured, 30, no, 1, 1, 0.566619, 1
5, coloured, 30, no, 2, 0, 0.493929, -1
5, coloured, 30, no, 3, 1, 0.389900, 1
5, coloured, 30, no, 4, 0, 0.375803, -1
5, coloured, 30, no, 5, 1, 0.427331, 1
5, coloured, 31, yes, 1, 0, NaN, NaN
5, coloured, 31, yes, 2, 0, NaN, NaN
5, coloured, 31, yes, 3, 0, 0.827247, -1
5, coloured, 31, yes, 4, 0, 0.404990, -1
5, coloured, 31, yes, 5, 1, 0.626473, 1
5, coloured, 32, no, 1, 1, 0.447906, 1
5, coloured, 32, no, 2, 1, 0.415760, 1
5, coloured, 32, no, 3, 1, 0.407182, 1
5, coloured, 33, yes, 1, 1, NaN, NaN
5, coloured, 33, yes, 2, 0, NaN, NaN
5, coloured, 33, yes, 3, 1, 0.513935, 1
5, coloured, 33, yes, 4, 0, 0.502801, -1
5, coloured, 34, no, 1, 0, 0.384305, -1
5, coloured, 34, no, 2, 1, 0.375646, 1
5, coloured, 34, no, 3, 1, 0.741984, -1
5, coloured, 34, no, 4, 1, 0.494261, 1
5, coloured, 34, no, 5, 1, 0.355736, 1
5, coloured, 35, no, 1, 1, 0.454916, 1
5, coloured, 35, no, 2, 1, 0.286961, 1
5, coloured, 35, no, 3, 1, 0.333987, 1
5, coloured, 36, yes, 1, 1, NaN, NaN
5, coloured, 36, yes, 2, 0, NaN, NaN
5, coloured, 36, yes, 3, 1, 0.484043, 1
5, coloured, 37, no, 1, 0, 0.516469, -1
5, coloured, 37, no, 2, 0, 1.346655, -1
5, coloured, 37, no, 3, 1, 0.395034, 1
5, coloured, 37, no, 4, 1, 0.750758, 1
5, coloured, 38, yes, 1, 1, NaN, NaN
5, coloured, 38, yes, 2, 1, NaN, NaN
5, coloured, 38, yes, 3, 0, 0.390892, -1
5, coloured, 38, yes, 4, 0, 1.052309, 1
5, coloured, 38, yes, 5, 0, 0.766824, -1
5, coloured, 39, yes, 1, 0, NaN, NaN
5, coloured, 39, yes, 2, 0, NaN, NaN
5, coloured, 39, yes, 3, 0, 0.526346, -1
5, coloured, 39, yes, 4, 0, 0.397220, -1
5, coloured, 39, yes, 5, 1, 0.700934, -1
5, coloured, 40, yes, 1, 0, NaN, NaN
5, coloured, 40, yes, 2, 0, NaN, NaN
5, coloured, 40, yes, 3, 0, 0.589994, -1
5, uncoloured, 1, no, 1, 1, 2.509742, -1
5, uncoloured, 1, no, 2, 1, 2.048122, 1
5, uncoloured, 1, no, 3, 1, 1.059435, 1
5, uncoloured, 1, no, 4, 1, 2.347892, 1
5, uncoloured, 1, no, 5, 1, 2.581632, 1
5, uncoloured, 2, no, 1, 0, 2.417830, -1
5, uncoloured, 2, no, 2, 1, 2.341789, 1
5, uncoloured, 2, no, 3, 0, 2.742809, -1
5, uncoloured, 2, no, 4, 1, 0.490462, 1
5, uncoloured, 2, no, 5, 0, 2.699004, -1
5, uncoloured, 3, no, 1, 0, 2.653078, -1
5, uncoloured, 3, no, 2, 1, 2.553699, -1
5, uncoloured, 3, no, 3, 0, 2.880386, -1
5, uncoloured, 4, yes, 1, 1, NaN, NaN
5, uncoloured, 4, yes, 2, 1, NaN, NaN
5, uncoloured, 4, yes, 3, 0, 1.742324, -1
5, uncoloured, 4, yes, 4, 0, 2.939773, -1
5, uncoloured, 5, no, 1, 1, 2.804919, -1
5, uncoloured, 5, no, 2, 1, 1.206437, 1
5, uncoloured, 5, no, 3, 1, 2.058225, -1
5, uncoloured, 5, no, 4, 1, 2.872385, 1
5, uncoloured, 5, no, 5, 1, 1.166226, 1
5, uncoloured, 6, no, 1, 0, 2.726908, -1
5, uncoloured, 6, no, 2, 0, 2.038394, -1
5, uncoloured, 6, no, 3, 1, 0.557922, 1
5, uncoloured, 6, no, 4, 1, 1.231266, 1
5, uncoloured, 7, no, 1, 0, 3.055056, -1
5, uncoloured, 7, no, 2, 1, 2.636728, -1
5, uncoloured, 7, no, 3, 1, 1.223722, 1
5, uncoloured, 7, no, 4, 0, 2.091306, -1
5, uncoloured, 7, no, 5, 0, 2.441991, -1
5, uncoloured, 8, yes, 1, 0, NaN, NaN
5, uncoloured, 8, yes, 2, 0, NaN, NaN
5, uncoloured, 8, yes, 3, 0, 2.967670, -1
5, uncoloured, 8, yes, 4, 0, 2.658456, -1
5, uncoloured, 9, yes, 1, 1, NaN, NaN
5, uncoloured, 9, yes, 2, 0, NaN, NaN
5, uncoloured, 9, yes, 3, 0, 2.579173, -1
5, uncoloured, 10, yes, 1, 1, NaN, NaN
5, uncoloured, 10, yes, 2, 1, NaN, NaN
5, uncoloured, 10, yes, 3, 1, 2.748569, -1
5, uncoloured, 11, no, 1, 1, 1.224843, 1
5, uncoloured, 11, no, 2, 1, 2.068235, 1
5, uncoloured, 11, no, 3, 0, 1.994841, -1
5, uncoloured, 12, no, 1, 0, 2.430302, -1
5, uncoloured, 12, no, 2, 0, 2.914455, -1
5, uncoloured, 12, no, 3, 1, 2.099984, 1
5, uncoloured, 12, no, 4, 1, 3.120928, -1
5, uncoloured, 12, no, 5, 0, 3.154555, -1
5, uncoloured, 13, no, 1, 1, 2.951037, -1
5, uncoloured, 13, no, 2, 0, 2.501606, -1
5, uncoloured, 13, no, 3, 1, 2.630800, 1
5, uncoloured, 13, no, 4, 1, 1.692514, -1
5, uncoloured, 14, yes, 1, 1, NaN, NaN
5, uncoloured, 14, yes, 2, 0, NaN, NaN
5, uncoloured, 14, yes, 3, 1, 2.138689, 1
5, uncoloured, 14, yes, 4, 1, 2.915796, -1
5, uncoloured, 15, yes, 1, 0, NaN, NaN
5, uncoloured, 15, yes, 2, 0, NaN, NaN