person, block, runNumber, visualise, trialNumber, targetPresent, responseTime, response2, coloured, 1, yes, 1, 1, NaN, NaN2, coloured, 1, yes, 2, 1, NaN, NaN2, coloured, 1, yes, 3, 1, 1.107488, 12, coloured, 1, yes, 4, 1, 0.585986, 12, coloured, 1, yes, 5, 0, 0.694278, -12, coloured, 2, yes, 1, 1, NaN, NaN2, coloured, 2, yes, 2, 0, NaN, NaN2, coloured, 2, yes, 3, 0, 0.960745, -12, coloured, 3, no, 1, 0, 1.250807, 12, coloured, 3, no, 2, 1, 0.495639, 12, coloured, 3, no, 3, 1, 0.656001, 12, coloured, 4, yes, 1, 0, NaN, NaN2, coloured, 4, yes, 2, 0, NaN, NaN2, coloured, 4, yes, 3, 0, 0.592186, -12, coloured, 4, yes, 4, 0, 0.554277, -12, coloured, 5, no, 1, 1, 0.725689, 12, coloured, 5, no, 2, 0, 0.425863, -12, coloured, 5, no, 3, 0, 0.471317, 12, coloured, 6, yes, 1, 1, NaN, NaN2, coloured, 6, yes, 2, 0, NaN, NaN2, coloured, 6, yes, 3, 0, 0.467028, -12, coloured, 6, yes, 4, 0, 0.727517, 12, coloured, 6, yes, 5, 0, 0.986674, -12, coloured, 7, no, 1, 0, 0.969405, -12, coloured, 7, no, 2, 0, 0.859678, -12, coloured, 7, no, 3, 0, 0.468970, -12, coloured, 7, no, 4, 1, 0.775820, 12, coloured, 7, no, 5, 0, 1.178295, -12, coloured, 8, yes, 1, 0, NaN, NaN2, coloured, 8, yes, 2, 0, NaN, NaN2, coloured, 8, yes, 3, 0, 0.701711, -12, coloured, 8, yes, 4, 1, 0.442835, 12, coloured, 8, yes, 5, 0, 0.659443, -12, coloured, 9, no, 1, 0, 0.649042, -12, coloured, 9, no, 2, 1, 0.409619, 12, coloured, 9, no, 3, 1, 0.568672, 12, coloured, 9, no, 4, 0, 0.791449, -12, coloured, 10, yes, 1, 1, NaN, NaN2, coloured, 10, yes, 2, 1, NaN, NaN2, coloured, 10, yes, 3, 1, 0.746277, 12, coloured, 10, yes, 4, 1, 0.670859, 12, coloured, 11, yes, 1, 1, NaN, NaN2, coloured, 11, yes, 2, 1, NaN, NaN2, coloured, 11, yes, 3, 1, 0.445353, 12, coloured, 11, yes, 4, 0, 0.507027, -12, coloured, 11, yes, 5, 1, 0.487205, 12, coloured, 12, no, 1, 0, 1.111913, -12, coloured, 12, no, 2, 0, 0.647715, 12, coloured, 12, no, 3, 0, 0.796936, -12, coloured, 13, no, 1, 0, 0.564784, -12, coloured, 13, no, 2, 0, 0.690459, -12, coloured, 13, no, 3, 1, 0.729211, 12, coloured, 13, no, 4, 0, 0.504316, -12, coloured, 13, no, 5, 1, 0.619148, 12, coloured, 14, no, 1, 1, 0.395898, 12, coloured, 14, no, 2, 1, 0.655838, 12, coloured, 14, no, 3, 0, 0.489399, -12, coloured, 14, no, 4, 0, 0.645634, -12, coloured, 14, no, 5, 0, 0.511204, -12, coloured, 15, no, 1, 0, 0.756914, -12, coloured, 15, no, 2, 0, 0.544731, -12, coloured, 15, no, 3, 0, 0.632378, -12, coloured, 15, no, 4, 0, 0.810801, -12, coloured, 16, no, 1, 0, 0.664187, -12, coloured, 16, no, 2, 1, 0.479310, 12, coloured, 16, no, 3, 0, 0.501621, -12, coloured, 17, yes, 1, 0, NaN, NaN2, coloured, 17, yes, 2, 1, NaN, NaN2, coloured, 17, yes, 3, 0, 0.620060, -12, coloured, 17, yes, 4, 0, 0.588032, -12, coloured, 18, no, 1, 0, 1.186923, -12, coloured, 18, no, 2, 0, 0.563338, -12, coloured, 18, no, 3, 0, 0.928217, -12, coloured, 19, no, 1, 1, 0.724114, 12, coloured, 19, no, 2, 1, 0.538545, 12, coloured, 19, no, 3, 0, 0.420840, -12, coloured, 19, no, 4, 1, 0.479779, 12, coloured, 20, no, 1, 1, 0.608944, 12, coloured, 20, no, 2, 1, 0.643397, 12, coloured, 20, no, 3, 1, 0.538275, 12, coloured, 20, no, 4, 0, 0.574855, -12, coloured, 21, no, 1, 0, 0.654325, -12, coloured, 21, no, 2, 0, 0.549051, -12, coloured, 21, no, 3, 0, 0.537168, -12, coloured, 22, yes, 1, 0, NaN, NaN2, coloured, 22, yes, 2, 0, NaN, NaN2, coloured, 22, yes, 3, 0, 0.716283, -12, coloured, 23, yes, 1, 1, NaN, NaN2, coloured, 23, yes, 2, 0, NaN, NaN2, coloured, 23, yes, 3, 0, 0.502622, -12, coloured, 23, yes, 4, 1, 0.630711, 12, coloured, 23, yes, 5, 1, 0.446105, 12, coloured, 24, yes, 1, 1, NaN, NaN2, coloured, 24, yes, 2, 1, NaN, NaN2, coloured, 24, yes, 3, 1, 0.844435, 12, coloured, 24, yes, 4, 1, 0.415138, 12, coloured, 25, yes, 1, 1, NaN, NaN2, coloured, 25, yes, 2, 0, NaN, NaN2, coloured, 25, yes, 3, 0, 0.562739, -12, coloured, 25, yes, 4, 0, 0.785628, -12, coloured, 26, no, 1, 1, 0.955873, 12, coloured, 26, no, 2, 1, 0.748850, 12, coloured, 26, no, 3, 1, 0.365356, 12, coloured, 26, no, 4, 0, 0.478398, -12, coloured, 26, no, 5, 1, 0.422994, 12, coloured, 27, no, 1, 1, 0.441141, 12, coloured, 27, no, 2, 0, 0.341330, -12, coloured, 27, no, 3, 1, 0.374765, 12, coloured, 27, no, 4, 1, 0.469820, 12, coloured, 27, no, 5, 0, 0.366416, -12, coloured, 28, yes, 1, 0, NaN, NaN2, coloured, 28, yes, 2, 0, NaN, NaN2, coloured, 28, yes, 3, 1, 0.531380, -12, coloured, 28, yes, 4, 0, 0.458077, -12, coloured, 28, yes, 5, 1, 0.520908, 12, coloured, 29, yes, 1, 1, NaN, NaN2, coloured, 29, yes, 2, 1, NaN, NaN2, coloured, 29, yes, 3, 1, 0.443128, 12, coloured, 29, yes, 4, 1, 0.329182, 12, coloured, 29, yes, 5, 0, 0.541584, -12, coloured, 30, yes, 1, 1, NaN, NaN2, coloured, 30, yes, 2, 1, NaN, NaN2, coloured, 30, yes, 3, 1, 0.702051, 12, coloured, 30, yes, 4, 1, 0.393549, 12, coloured, 30, yes, 5, 0, 0.288771, -12, coloured, 1, yes, 1, 0, NaN, NaN2, coloured, 1, yes, 2, 1, NaN, NaN2, coloured, 1, yes, 3, 1, 0.620193, 12, coloured, 2, yes, 1, 0, NaN, NaN2, coloured, 2, yes, 2, 0, NaN, NaN2, coloured, 2, yes, 3, 1, 0.505590, 12, coloured, 2, yes, 4, 0, 0.759258, -12, coloured, 2, yes, 5, 1, 0.645384, 12, coloured, 3, no, 1, 0, 0.559777, -12, coloured, 3, no, 2, 1, 0.492519, 12, coloured, 3, no, 3, 0, 0.502610, -12, coloured, 4, yes, 1, 0, NaN, NaN2, coloured, 4, yes, 2, 1, NaN, NaN2, coloured, 4, yes, 3, 1, 0.682864, 12, coloured, 4, yes, 4, 0, 0.556725, -12, coloured, 4, yes, 5, 0, 0.642981, -12, coloured, 5, no, 1, 0, 0.809936, -12, coloured, 5, no, 2, 0, 0.666803, -12, coloured, 5, no, 3, 1, 0.414481, 12, coloured, 5, no, 4, 0, 0.393198, -12, coloured, 6, yes, 1, 1, NaN, NaN2, coloured, 6, yes, 2, 1, NaN, NaN2, coloured, 6, yes, 3, 1, 0.431018, 12, coloured, 6, yes, 4, 1, 0.380391, 12, coloured, 6, yes, 5, 1, 0.502368, 12, coloured, 7, no, 1, 1, 0.562467, 12, coloured, 7, no, 2, 0, 0.407150, -12, coloured, 7, no, 3, 1, 0.463746, -12, coloured, 8, yes, 1, 0, NaN, NaN2, coloured, 8, yes, 2, 1, NaN, NaN2, coloured, 8, yes, 3, 1, 0.618068, 12, coloured, 8, yes, 4, 0, 0.524622, -12, coloured, 9, no, 1, 0, 0.795473, -12, coloured, 9, no, 2, 1, 0.302129, 12, coloured, 9, no, 3, 1, 0.315717, 12, coloured, 9, no, 4, 1, 0.210193, 12, coloured, 9, no, 5, 0, 0.265966, -12, coloured, 10, yes, 1, 1, NaN, NaN2, coloured, 10, yes, 2, 0, NaN, NaN2, coloured, 10, yes, 3, 1, 0.736218, 12, coloured, 11, yes, 1, 1, NaN, NaN2, coloured, 11, yes, 2, 1, NaN, NaN2, coloured, 11, yes, 3, 1, 0.441196, 12, coloured, 12, no, 1, 1, 0.568554, 12, coloured, 12, no, 2, 1, 0.476806, 12, coloured, 12, no, 3, 0, 0.451737, -12, coloured, 12, no, 4, 0, 0.487251, -12, coloured, 12, no, 5, 0, 0.665448, -12, coloured, 13, no, 1, 1, 0.621766, 12, coloured, 13, no, 2, 0, 0.464943, -12, coloured, 13, no, 3, 1, 0.632859, 12, coloured, 14, no, 1, 1, 0.736029, 12, coloured, 14, no, 2, 0, 1.013230, -12, coloured, 14, no, 3, 0, 0.477981, -12, coloured, 14, no, 4, 0, 0.442349, -12, coloured, 14, no, 5, 0, 1.981310, 12, coloured, 15, no, 1, 0, 1.206806, -12, coloured, 15, no, 2, 0, 1.807180, -12, coloured, 15, no, 3, 1, 0.485910, 12, coloured, 15, no, 4, 1, 0.779245, 12, coloured, 15, no, 5, 1, 0.460158, 12, coloured, 16, no, 1, 0, 0.407137, -12, coloured, 16, no, 2, 0, 0.554573, -12, coloured, 16, no, 3, 0, 0.455516, -12, coloured, 16, no, 4, 0, 1.177328, -12, coloured, 16, no, 5, 0, 1.011118, -12, coloured, 17, yes, 1, 1, NaN, NaN2, coloured, 17, yes, 2, 1, NaN, NaN2, coloured, 17, yes, 3, 0, 1.122759, -12, coloured, 17, yes, 4, 0, 0.646758, -12, coloured, 17, yes, 5, 0, 0.445251, -12, coloured, 18, no, 1, 0, 1.107327, 12, coloured, 18, no, 2, 0, 0.541011, 12, coloured, 18, no, 3, 0, 0.476438, -12, coloured, 18, no, 4, 1, 1.504308, 12, coloured, 19, no, 1, 1, 0.452662, 12, coloured, 19, no, 2, 0, 0.555325, -12, coloured, 19, no, 3, 0, 0.454396, -12, coloured, 20, no, 1, 1, 0.385817, 12, coloured, 20, no, 2, 1, 0.491028, 12, coloured, 20, no, 3, 0, 0.531928, -12, coloured, 20, no, 4, 0, 0.445678, -12, coloured, 21, no, 1, 1, 1.033693, 12, coloured, 21, no, 2, 0, 0.551300, -12, coloured, 21, no, 3, 1, 0.480893, 12, coloured, 21, no, 4, 1, 0.461561, 12, coloured, 21, no, 5, 1, 0.523645, 12, coloured, 22, yes, 1, 1, NaN, NaN2, coloured, 22, yes, 2, 1, NaN, NaN2, coloured, 22, yes, 3, 0, 0.862022, -12, coloured, 22, yes, 4, 1, 0.486451, 12, coloured, 22, yes, 5, 0, 0.412114, -12, coloured, 23, yes, 1, 0, NaN, NaN2, coloured, 23, yes, 2, 1, NaN, NaN2, coloured, 23, yes, 3, 1, 0.592042, 12, coloured, 24, yes, 1, 0, NaN, NaN2, coloured, 24, yes, 2, 0, NaN, NaN2, coloured, 24, yes, 3, 1, 0.478643, 12, coloured, 24, yes, 4, 0, 0.369447, -12, coloured, 25, yes, 1, 0, NaN, NaN2, coloured, 25, yes, 2, 1, NaN, NaN2, coloured, 25, yes, 3, 1, 0.711395, 12, coloured, 25, yes, 4, 1, 0.551077, 12, coloured, 25, yes, 5, 1, 0.552227, 12, coloured, 26, no, 1, 1, 0.937226, -12, coloured, 26, no, 2, 1, 0.527632, 12, coloured, 26, no, 3, 1, 0.312996, 12, coloured, 26, no, 4, 0, 0.190494, 12, coloured, 27, no, 1, 1, 0.592480, 12, coloured, 27, no, 2, 1, 0.544262, 12, coloured, 27, no, 3, 1, 0.474720, 12, coloured, 27, no, 4, 0, 0.465161, -12, coloured, 27, no, 5, 1, 0.489368, -12, coloured, 28, yes, 1, 1, NaN, NaN2, coloured, 28, yes, 2, 0, NaN, NaN2, coloured, 28, yes, 3, 0, 0.494595, -12, coloured, 28, yes, 4, 1, 0.456028, 12, coloured, 28, yes, 5, 1, 0.588494, 12, coloured, 29, yes, 1, 1, NaN, NaN2, coloured, 29, yes, 2, 1, NaN, NaN2, coloured, 29, yes, 3, 1, 0.539745, 12, coloured, 30, yes, 1, 0, NaN, NaN2, coloured, 30, yes, 2, 1, NaN, NaN2, coloured, 30, yes, 3, 1, 0.547585, 12, coloured, 30, yes, 4, 0, 0.433141, -12, coloured, 30, yes, 5, 0, 0.358716, -12, coloured, 1, yes, 1, 1, NaN, NaN2, coloured, 1, yes, 2, 1, NaN, NaN2, coloured, 1, yes, 3, 0, 0.511517, -12, coloured, 1, yes, 4, 0, 0.534910, -12, coloured, 2, yes, 1, 0, NaN, NaN2, coloured, 2, yes, 2, 0, NaN, NaN2, coloured, 2, yes, 3, 0, 0.476807, -12, coloured, 3, no, 1, 0, 0.448381, -12, coloured, 3, no, 2, 0, 0.435424, -12, coloured, 3, no, 3, 1, 0.398464, 12, coloured, 4, yes, 1, 0, NaN, NaN2, coloured, 4, yes, 2, 1, NaN, NaN2, coloured, 4, yes, 3, 0, 0.606275, -12, coloured, 5, no, 1, 1, 0.574152, 12, coloured, 5, no, 2, 0, 0.715987, -12, coloured, 5, no, 3, 0, 0.473259, -12, coloured, 5, no, 4, 1, 0.446820, 12, coloured, 5, no, 5, 0, 0.417382, -12, coloured, 6, yes, 1, 1, NaN, NaN2, coloured, 6, yes, 2, 0, NaN, NaN2, coloured, 6, yes, 3, 1, 0.675382, 12, coloured, 7, no, 1, 0, 0.486054, -12, coloured, 7, no, 2, 1, 0.287842, 12, coloured, 7, no, 3, 0, 0.422110, -12, coloured, 7, no, 4, 0, 0.466270, -12, coloured, 8, yes, 1, 0, NaN, NaN2, coloured, 8, yes, 2, 1, NaN, NaN2, coloured, 8, yes, 3, 0, 0.723500, -12, coloured, 9, no, 1, 1, 1.497516, -12, coloured, 9, no, 2, 1, 0.504468, 12, coloured, 9, no, 3, 1, 0.505515, 12, coloured, 9, no, 4, 1, 0.541475, 12, coloured, 9, no, 5, 0, 0.451688, -12, coloured, 10, yes, 1, 0, NaN, NaN2, coloured, 10, yes, 2, 1, NaN, NaN2, coloured, 10, yes, 3, 0, 0.545965, -12, coloured, 10, yes, 4, 1, 0.379044, 12, coloured, 11, yes, 1, 0, NaN, NaN2, coloured, 11, yes, 2, 0, NaN, NaN2, coloured, 11, yes, 3, 1, 0.507047, 12, coloured, 11, yes, 4, 0, 0.290399, -12, coloured, 11, yes, 5, 0, 0.371999, -12, coloured, 12, no, 1, 0, 0.392806, -12, coloured, 12, no, 2, 0, 0.291277, -12, coloured, 12, no, 3, 1, 0.246811, 12, coloured, 12, no, 4, 0, 0.386818, -12, coloured, 13, no, 1, 0, 0.391010, -12, coloured, 13, no, 2, 0, 0.386756, -12, coloured, 13, no, 3, 0, 0.321546, -12, coloured, 13, no, 4, 1, 0.350575, -12, coloured, 13, no, 5, 1, 0.341824, 12, coloured, 14, no, 1, 1, 0.806258, 12, coloured, 14, no, 2, 0, 0.482260, -12, coloured, 14, no, 3, 0, 0.521915, -12, coloured, 15, no, 1, 1, 0.570725, 12, coloured, 15, no, 2, 1, 0.415239, 12, coloured, 15, no, 3, 0, 0.444887, -12, coloured, 16, no, 1, 1, 0.477347, 12, coloured, 16, no, 2, 0, 0.427513, -12, coloured, 16, no, 3, 1, 0.812528, 12, coloured, 16, no, 4, 1, 0.327328, 12, coloured, 16, no, 5, 0, 0.521629, -12, coloured, 17, yes, 1, 0, NaN, NaN2, coloured, 17, yes, 2, 1, NaN, NaN2, coloured, 17, yes, 3, 1, 1.099108, 12, coloured, 17, yes, 4, 0, 0.458974, -12, coloured, 17, yes, 5, 0, 0.441363, -12, coloured, 18, no, 1, 0, 0.466750, -12, coloured, 18, no, 2, 0, 0.633462, -12, coloured, 18, no, 3, 0, 0.504403, -12, coloured, 19, no, 1, 1, 0.380766, 12, coloured, 19, no, 2, 1, 0.520883, 12, coloured, 19, no, 3, 1, 0.338808, 12, coloured, 20, no, 1, 1, 0.368633, 12, coloured, 20, no, 2, 1, 0.316432, 12, coloured, 20, no, 3, 1, 0.399477, 12, coloured, 20, no, 4, 1, 0.454271, 12, coloured, 20, no, 5, 1, 0.514343, 12, coloured, 21, no, 1, 1, 0.618598, 12, coloured, 21, no, 2, 1, 0.529024, 12, coloured, 21, no, 3, 0, 0.589496, -12, coloured, 22, yes, 1, 1, NaN, NaN2, coloured, 22, yes, 2, 1, NaN, NaN2, coloured, 22, yes, 3, 0, 0.606135, -12, coloured, 23, yes, 1, 0, NaN, NaN2, coloured, 23, yes, 2, 0, NaN, NaN2, coloured, 23, yes, 3, 0, 0.515445, -12, coloured, 23, yes, 4, 0, 0.478148, -12, coloured, 24, yes, 1, 0, NaN, NaN2, coloured, 24, yes, 2, 1, NaN, NaN2, coloured, 24, yes, 3, 0, 0.763412, -12, coloured, 24, yes, 4, 1, 0.890761, 12, coloured, 25, yes, 1, 0, NaN, NaN2, coloured, 25, yes, 2, 0, NaN, NaN2, coloured, 25, yes, 3, 1, 0.689380, 12, coloured, 25, yes, 4, 0, 0.461549, -12, coloured, 25, yes, 5, 0, 0.470967, -12, coloured, 26, no, 1, 0, 0.415969, -12, coloured, 26, no, 2, 0, 0.351826, -12, coloured, 26, no, 3, 1, 0.579578, 12, coloured, 26, no, 4, 1, 0.317196, 12, coloured, 26, no, 5, 1, 0.372475, 12, coloured, 27, no, 1, 1, 0.497829, 12, coloured, 27, no, 2, 1, 0.487771, 12, coloured, 27, no, 3, 0, 0.422438, -12, coloured, 28, yes, 1, 0, NaN, NaN2, coloured, 28, yes, 2, 0, NaN, NaN2, coloured, 28, yes, 3, 0, 0.972806, -12, coloured, 28, yes, 4, 0, 0.608795, -12, coloured, 29, yes, 1, 1, NaN, NaN2, coloured, 29, yes, 2, 0, NaN, NaN2, coloured, 29, yes, 3, 0, 0.430417, -12, coloured, 29, yes, 4, 0, 0.510189, -12, coloured, 29, yes, 5, 1, 0.296140, 12, coloured, 30, yes, 1, 0, NaN, NaN2, coloured, 30, yes, 2, 1, NaN, NaN2, coloured, 30, yes, 3, 1, 0.681995, 12, coloured, 30, yes, 4, 1, 0.376707, 12, coloured, 1, yes, 1, 1, NaN, NaN2, coloured, 1, yes, 2, 1, NaN, NaN2, coloured, 1, yes, 3, 0, 0.574193, -12, coloured, 1, yes, 4, 0, 0.477898, -12, coloured, 1, yes, 5, 1, 0.291517, 12, coloured, 2, yes, 1, 0, NaN, NaN2, coloured, 2, yes, 2, 1, NaN, NaN2, coloured, 2, yes, 3, 0, 0.482702, -12, coloured, 2, yes, 4, 0, 0.631454, -12, coloured, 3, no, 1, 0, 0.452826, -12, coloured, 3, no, 2, 1, 0.559552, 12, coloured, 3, no, 3, 0, 0.531101, -12, coloured, 3, no, 4, 1, 0.405525, -12, coloured, 4, yes, 1, 0, NaN, NaN2, coloured, 4, yes, 2, 1, NaN, NaN2, coloured, 4, yes, 3, 1, 0.574654, 12, coloured, 4, yes, 4, 1, 0.335061, 12, coloured, 4, yes, 5, 1, 0.423938, 12, coloured, 5, no, 1, 0, 0.550556, -12, coloured, 5, no, 2, 0, 0.977948, -12, coloured, 5, no, 3, 0, 0.795304, -12, coloured, 5, no, 4, 0, 1.200320, -12, coloured, 5, no, 5, 0, 0.641256, -12, coloured, 6, yes, 1, 1, NaN, NaN2, coloured, 6, yes, 2, 0, NaN, NaN2, coloured, 6, yes, 3, 0, 0.746949, -12, coloured, 6, yes, 4, 0, 0.555322, -12, coloured, 6, yes, 5, 0, 0.799583, -12, coloured, 7, no, 1, 1, 0.295589, 12, coloured, 7, no, 2, 1, 0.592626, 12, coloured, 7, no, 3, 1, 0.499439, 12, coloured, 7, no, 4, 0, 0.411474, -12, coloured, 7, no, 5, 0, 0.474213, -12, coloured, 8, yes, 1, 1, NaN, NaN2, coloured, 8, yes, 2, 0, NaN, NaN2, coloured, 8, yes, 3, 1, 1.103705, 12, coloured, 8, yes, 4, 1, 0.921106, 12, coloured, 8, yes, 5, 1, 0.669359, 12, coloured, 9, no, 1, 0, 0.407468, -12, coloured, 9, no, 2, 0, 0.965495, -12, coloured, 9, no, 3, 1, 0.376165, 12, coloured, 9, no, 4, 0, 0.415589, -12, coloured, 9, no, 5, 0, 0.456106, -12, coloured, 10, yes, 1, 1, NaN, NaN2, coloured, 10, yes, 2, 0, NaN, NaN2, coloured, 10, yes, 3, 0, 0.403170, -12, coloured, 11, yes, 1, 0, NaN, NaN2, coloured, 11, yes, 2, 1, NaN, NaN2, coloured, 11, yes, 3, 0, 0.391436, -12, coloured, 12, no, 1, 1, 0.472465, 12, coloured, 12, no, 2, 0, 0.530195, -12, coloured, 12, no, 3, 0, 0.477245, -12, coloured, 12, no, 4, 1, 0.484211, 12, coloured, 13, no, 1, 0, 0.414432, -12, coloured, 13, no, 2, 1, 0.900299, 12, coloured, 13, no, 3, 0, 0.370129, -12, coloured, 13, no, 4, 0, 0.450873, -12, coloured, 13, no, 5, 0, 0.443630, -12, coloured, 14, no, 1, 0, 0.658798, -12, coloured, 14, no, 2, 1, 0.526885, 12, coloured, 14, no, 3, 1, 0.368337, -12, coloured, 14, no, 4, 1, 0.436495, 12, coloured, 14, no, 5, 1, 0.331435, 12, coloured, 15, no, 1, 1, 0.485275, 12, coloured, 15, no, 2, 0, 0.627349, -12, coloured, 15, no, 3, 1, 0.485690, 12, coloured, 16, no, 1, 0, 0.621772, 12, coloured, 16, no, 2, 1, 0.533314, 12, coloured, 16, no, 3, 1, 0.522585, -12, coloured, 16, no, 4, 1, 0.336365, 12, coloured, 16, no, 5, 0, 0.423086, -12, coloured, 17, yes, 1, 1, NaN, NaN2, coloured, 17, yes, 2, 1, NaN, NaN2, coloured, 17, yes, 3, 0, 0.435042, -12, coloured, 17, yes, 4, 1, 0.512103, 12, coloured, 18, no, 1, 1, 0.506484, 12, coloured, 18, no, 2, 1, 0.460278, 12, coloured, 18, no, 3, 0, 0.345556, -12, coloured, 18, no, 4, 0, 0.496883, -12, coloured, 19, no, 1, 0, 0.719955, -12, coloured, 19, no, 2, 0, 0.469281, -12, coloured, 19, no, 3, 0, 0.351002, -12, coloured, 19, no, 4, 0, 0.346320, -12, coloured, 19, no, 5, 0, 0.360300, -12, coloured, 20, no, 1, 1, 0.449042, 12, coloured, 20, no, 2, 1, 0.567172, 12, coloured, 20, no, 3, 0, 0.511699, -12, coloured, 21, no, 1, 0, 0.650672, -12, coloured, 21, no, 2, 1, 0.294096, 12, coloured, 21, no, 3, 1, 0.295889, 12, coloured, 21, no, 4, 0, 0.623928, -12, coloured, 22, yes, 1, 0, NaN, NaN2, coloured, 22, yes, 2, 1, NaN, NaN2, coloured, 22, yes, 3, 1, 0.456497, 12, coloured, 22, yes, 4, 0, 0.594836, -12, coloured, 23, yes, 1, 1, NaN, NaN2, coloured, 23, yes, 2, 0, NaN, NaN2, coloured, 23, yes, 3, 1, 0.543204, 12, coloured, 23, yes, 4, 1, 0.373215, 12, coloured, 23, yes, 5, 0, 0.486851, -12, coloured, 24, yes, 1, 0, NaN, NaN2, coloured, 24, yes, 2, 1, NaN, NaN2, coloured, 24, yes, 3, 0, 0.605501, -12, coloured, 24, yes, 4, 0, 0.590248, -12, coloured, 25, yes, 1, 1, NaN, NaN2, coloured, 25, yes, 2, 0, NaN, NaN2, coloured, 25, yes, 3, 0, 0.615438, -12, coloured, 25, yes, 4, 1, 0.818204, 12, coloured, 25, yes, 5, 0, 0.748395, -12, coloured, 26, no, 1, 0, 0.476440, -12, coloured, 26, no, 2, 1, 0.514392, 12, coloured, 26, no, 3, 1, 0.526396, 12, coloured, 26, no, 4, 1, 0.444415, 12, coloured, 26, no, 5, 0, 0.412578, -12, coloured, 27, no, 1, 1, 0.555317, 12, coloured, 27, no, 2, 1, 0.452827, 12, coloured, 27, no, 3, 0, 0.399727, -12, coloured, 27, no, 4, 1, 0.540317, 12, coloured, 27, no, 5, 0, 0.449644, -12, coloured, 28, yes, 1, 0, NaN, NaN2, coloured, 28, yes, 2, 1, NaN, NaN2, coloured, 28, yes, 3, 1, 0.477223, 12, coloured, 28, yes, 4, 0, 0.383936, -12, coloured, 29, yes, 1, 1, NaN, NaN2, coloured, 29, yes, 2, 0, NaN, NaN2, coloured, 29, yes, 3, 0, 0.813052, -12, coloured, 30, yes, 1, 1, NaN, NaN2, coloured, 30, yes, 2, 0, NaN, NaN2, coloured, 30, yes, 3, 1, 0.471742, 12, coloured, 30, yes, 4, 1, 0.333738, 13, coloured, 1, yes, 1, 1, NaN, NaN3, coloured, 1, yes, 2, 1, NaN, NaN3, coloured, 1, yes, 3, 1, 1.446236, 13, coloured, 1, yes, 4, 1, 0.631088, 13, coloured, 1, yes, 5, 0, 0.680879, -13, coloured, 2, yes, 1, 1, NaN, NaN3, coloured, 2, yes, 2, 0, NaN, NaN3, coloured, 2, yes, 3, 0, 1.222675, -13, coloured, 3, no, 1, 0, 0.863689, -13, coloured, 3, no, 2, 1, 0.711431, 13, coloured, 3, no, 3, 1, 0.805396, 13, coloured, 4, yes, 1, 0, NaN, NaN3, coloured, 4, yes, 2, 0, NaN, NaN3, coloured, 4, yes, 3, 0, 1.476099, -13, coloured, 4, yes, 4, 0, 0.553195, -13, coloured, 5, no, 1, 1, 0.711695, 13, coloured, 5, no, 2, 0, 0.595689, -13, coloured, 5, no, 3, 0, 0.569146, -13, coloured, 6, yes, 1, 1, NaN, NaN3, coloured, 6, yes, 2, 0, NaN, NaN3, coloured, 6, yes, 3, 0, 0.654228, -13, coloured, 6, yes, 4, 0, 0.844257, -13, coloured, 6, yes, 5, 0, 1.040784, -13, coloured, 7, no, 1, 0, 0.665975, -13, coloured, 7, no, 2, 0, 0.600744, -13, coloured, 7, no, 3, 0, 0.492247, -13, coloured, 7, no, 4, 1, 0.696212, 13, coloured, 7, no, 5, 0, 1.252688, -13, coloured, 8, yes, 1, 0, NaN, NaN3, coloured, 8, yes, 2, 0, NaN, NaN3, coloured, 8, yes, 3, 0, 0.674018, -13, coloured, 8, yes, 4, 1, 0.509728, 13, coloured, 8, yes, 5, 0, 0.600047, -13, coloured, 9, no, 1, 0, 0.547710, 13, coloured, 9, no, 2, 1, 0.738222, 13, coloured, 9, no, 3, 1, 0.932276, 13, coloured, 9, no, 4, 0, 0.662713, -13, coloured, 10, yes, 1, 1, NaN, NaN3, coloured, 10, yes, 2, 1, NaN, NaN3, coloured, 10, yes, 3, 1, 0.786893, -13, coloured, 10, yes, 4, 1, 0.752450, 13, coloured, 11, yes, 1, 1, NaN, NaN3, coloured, 11, yes, 2, 1, NaN, NaN3, coloured, 11, yes, 3, 1, 1.204736, 13, coloured, 11, yes, 4, 0, 0.818272, -13, coloured, 11, yes, 5, 1, 0.666352, 13, coloured, 12, no, 1, 0, 1.545834, -13, coloured, 12, no, 2, 0, 0.934038, -13, coloured, 12, no, 3, 0, 1.085665, -13, coloured, 13, no, 1, 0, 0.831036, -13, coloured, 13, no, 2, 0, 0.541597, -13, coloured, 13, no, 3, 1, 0.845432, 13, coloured, 13, no, 4, 0, 0.730639, -13, coloured, 13, no, 5, 1, 0.826242, 13, coloured, 14, no, 1, 1, 0.591653, 13, coloured, 14, no, 2, 1, 0.643164, 13, coloured, 14, no, 3, 0, 0.567551, -13, coloured, 14, no, 4, 0, 0.693510, -13, coloured, 14, no, 5, 0, 0.612242, -13, coloured, 15, no, 1, 0, 0.635635, -13, coloured, 15, no, 2, 0, 0.580980, -13, coloured, 15, no, 3, 0, 0.644300, -13, coloured, 15, no, 4, 0, 0.696123, -13, coloured, 16, no, 1, 0, 0.502651, -13, coloured, 16, no, 2, 1, 0.631394, 13, coloured, 16, no, 3, 0, 0.832068, -13, coloured, 17, yes, 1, 0, NaN, NaN3, coloured, 17, yes, 2, 1, NaN, NaN3, coloured, 17, yes, 3, 0, 0.925248, -13, coloured, 17, yes, 4, 0, 0.717495, -13, coloured, 18, no, 1, 0, 0.868350, -13, coloured, 18, no, 2, 0, 0.675151, -13, coloured, 18, no, 3, 0, 0.877917, -13, coloured, 19, no, 1, 1, 0.751366, 13, coloured, 19, no, 2, 1, 0.676207, 13, coloured, 19, no, 3, 0, 0.969499, -13, coloured, 19, no, 4, 1, 0.624372, 13, coloured, 20, no, 1, 1, 1.134542, 13, coloured, 20, no, 2, 1, 0.725268, 13, coloured, 20, no, 3, 1, 0.684815, 13, coloured, 20, no, 4, 0, 0.784224, -13, coloured, 21, no, 1, 0, 1.612425, -13, coloured, 21, no, 2, 0, 1.538682, -13, coloured, 21, no, 3, 0, 1.250870, -13, coloured, 22, yes, 1, 0, NaN, NaN3, coloured, 22, yes, 2, 0, NaN, NaN3, coloured, 22, yes, 3, 0, 0.833868, -13, coloured, 23, yes, 1, 1, NaN, NaN3, coloured, 23, yes, 2, 0, NaN, NaN3, coloured, 23, yes, 3, 0, 0.642331, -13, coloured, 23, yes, 4, 1, 0.625409, 13, coloured, 23, yes, 5, 1, 0.356796, 13, coloured, 24, yes, 1, 1, NaN, NaN3, coloured, 24, yes, 2, 1, NaN, NaN3, coloured, 24, yes, 3, 1, 0.738083, 13, coloured, 24, yes, 4, 1, 0.381636, 13, coloured, 25, yes, 1, 1, NaN, NaN3, coloured, 25, yes, 2, 0, NaN, NaN3, coloured, 25, yes, 3, 0, 0.693116, 13, coloured, 25, yes, 4, 0, 0.826835, -13, coloured, 26, no, 1, 1, 0.537417, 13, coloured, 26, no, 2, 1, 0.707024, 13, coloured, 26, no, 3, 1, 0.461653, 13, coloured, 26, no, 4, 0, 0.597565, -13, coloured, 26, no, 5, 1, 0.428249, 13, coloured, 27, no, 1, 1, 0.526900, 13, coloured, 27, no, 2, 0, 0.592637, -13, coloured, 27, no, 3, 1, 1.098836, 13, coloured, 27, no, 4, 1, 0.599354, 13, coloured, 27, no, 5, 0, 0.807420, -13, coloured, 28, yes, 1, 0, NaN, NaN3, coloured, 28, yes, 2, 0, NaN, NaN3, coloured, 28, yes, 3, 1, 0.708229, -13, coloured, 28, yes, 4, 0, 0.699044, -13, coloured, 28, yes, 5, 1, 0.587342, 13, coloured, 29, yes, 1, 1, NaN, NaN3, coloured, 29, yes, 2, 1, NaN, NaN3, coloured, 29, yes, 3, 1, 0.863790, 13, coloured, 29, yes, 4, 1, 0.449466, 13, coloured, 29, yes, 5, 0, 0.564269, -13, coloured, 30, yes, 1, 1, NaN, NaN3, coloured, 30, yes, 2, 1, NaN, NaN3, coloured, 30, yes, 3, 1, 2.001602, 33, coloured, 30, yes, 4, 1, 0.547417, 13, coloured, 30, yes, 5, 0, 0.737825, -13, coloured, 1, yes, 1, 0, NaN, NaN3, coloured, 1, yes, 2, 1, NaN, NaN3, coloured, 1, yes, 3, 1, 0.751305, 13, coloured, 2, yes, 1, 0, NaN, NaN3, coloured, 2, yes, 2, 0, NaN, NaN3, coloured, 2, yes, 3, 1, 0.555955, 13, coloured, 2, yes, 4, 0, 0.666145, -13, coloured, 2, yes, 5, 1, 0.783452, 13, coloured, 3, no, 1, 0, 0.644384, -13, coloured, 3, no, 2, 1, 0.797714, 13, coloured, 3, no, 3, 0, 0.541813, -13, coloured, 4, yes, 1, 0, NaN, NaN3, coloured, 4, yes, 2, 1, NaN, NaN3, coloured, 4, yes, 3, 1, 0.511061, 13, coloured, 4, yes, 4, 0, 1.515137, -13, coloured, 4, yes, 5, 0, 1.132080, -13, coloured, 5, no, 1, 0, 0.773238, -13, coloured, 5, no, 2, 0, 0.650392, -13, coloured, 5, no, 3, 1, 0.748926, 13, coloured, 5, no, 4, 0, 0.739288, -13, coloured, 6, yes, 1, 1, NaN, NaN3, coloured, 6, yes, 2, 1, NaN, NaN3, coloured, 6, yes, 3, 1, 0.635717, 13, coloured, 6, yes, 4, 1, 2.001850, 33, coloured, 6, yes, 5, 1, 0.647482, 13, coloured, 7, no, 1, 1, 0.583380, 13, coloured, 7, no, 2, 0, 0.644920, -13, coloured, 7, no, 3, 1, 0.481114, 13, coloured, 8, yes, 1, 0, NaN, NaN3, coloured, 8, yes, 2, 1, NaN, NaN3, coloured, 8, yes, 3, 1, 0.595833, 13, coloured, 8, yes, 4, 0, 0.550528, -13, coloured, 9, no, 1, 0, 1.018703, -13, coloured, 9, no, 2, 1, 0.521137, 13, coloured, 9, no, 3, 1, 0.388368, 13, coloured, 9, no, 4, 1, 0.259416, 13, coloured, 9, no, 5, 0, 0.484031, -13, coloured, 10, yes, 1, 1, NaN, NaN3, coloured, 10, yes, 2, 0, NaN, NaN3, coloured, 10, yes, 3, 1, 0.862072, 13, coloured, 11, yes, 1, 1, NaN, NaN3, coloured, 11, yes, 2, 1, NaN, NaN3, coloured, 11, yes, 3, 1, 0.681524, 13, coloured, 12, no, 1, 1, 0.926269, 13, coloured, 12, no, 2, 1, 0.569875, 13, coloured, 12, no, 3, 0, 0.738355, -13, coloured, 12, no, 4, 0, 1.052553, -13, coloured, 12, no, 5, 0, 0.673098, -13, coloured, 13, no, 1, 1, 0.437066, 13, coloured, 13, no, 2, 0, 0.797048, -13, coloured, 13, no, 3, 1, 0.834808, 13, coloured, 14, no, 1, 1, 0.775829, -13, coloured, 14, no, 2, 0, 0.621563, -13, coloured, 14, no, 3, 0, 0.774120, -13, coloured, 14, no, 4, 0, 0.600509, -13, coloured, 14, no, 5, 0, 0.947033, -13, coloured, 15, no, 1, 0, 0.959620, -13, coloured, 15, no, 2, 0, 0.606148, -13, coloured, 15, no, 3, 1, 0.880307, 13, coloured, 15, no, 4, 1, 0.798331, 13, coloured, 15, no, 5, 1, 0.479365, 13, coloured, 16, no, 1, 0, 0.882866, -13, coloured, 16, no, 2, 0, 0.872358, -13, coloured, 16, no, 3, 0, 0.604218, -13, coloured, 16, no, 4, 0, 0.532756, -13, coloured, 16, no, 5, 0, 0.810238, -13, coloured, 17, yes, 1, 1, NaN, NaN3, coloured, 17, yes, 2, 1, NaN, NaN3, coloured, 17, yes, 3, 0, 0.742966, -13, coloured, 17, yes, 4, 0, 0.574638, -13, coloured, 17, yes, 5, 0, 0.440430, -13, coloured, 18, no, 1, 0, 0.694419, -13, coloured, 18, no, 2, 0, 0.795763, -13, coloured, 18, no, 3, 0, 0.454264, -13, coloured, 18, no, 4, 1, 0.683435, 13, coloured, 19, no, 1, 1, 0.959216, 13, coloured, 19, no, 2, 0, 0.619092, -13, coloured, 19, no, 3, 0, 0.687177, -13, coloured, 20, no, 1, 1, 0.572563, 13, coloured, 20, no, 2, 1, 0.433930, 13, coloured, 20, no, 3, 0, 0.649409, -13, coloured, 20, no, 4, 0, 0.350029, -13, coloured, 21, no, 1, 1, 0.551900, 13, coloured, 21, no, 2, 0, 0.938003, -13, coloured, 21, no, 3, 1, 0.587978, 13, coloured, 21, no, 4, 1, 0.456277, 13, coloured, 21, no, 5, 1, 0.384095, 13, coloured, 22, yes, 1, 1, NaN, NaN3, coloured, 22, yes, 2, 1, NaN, NaN3, coloured, 22, yes, 3, 0, 0.681084, -13, coloured, 22, yes, 4, 1, 0.643134, 13, coloured, 22, yes, 5, 0, 0.630413, -13, coloured, 23, yes, 1, 0, NaN, NaN3, coloured, 23, yes, 2, 1, NaN, NaN3, coloured, 23, yes, 3, 1, 0.722553, -13, coloured, 24, yes, 1, 0, NaN, NaN3, coloured, 24, yes, 2, 0, NaN, NaN3, coloured, 24, yes, 3, 1, 0.440259, 13, coloured, 24, yes, 4, 0, 0.575039, -13, coloured, 25, yes, 1, 0, NaN, NaN3, coloured, 25, yes, 2, 1, NaN, NaN3, coloured, 25, yes, 3, 1, 0.520540, 13, coloured, 25, yes, 4, 1, 0.306845, 13, coloured, 25, yes, 5, 1, 0.353346, 13, coloured, 26, no, 1, 1, 0.718749, 13, coloured, 26, no, 2, 1, 0.853283, 13, coloured, 26, no, 3, 1, 0.324252, 13, coloured, 26, no, 4, 0, 0.593704, -13, coloured, 27, no, 1, 1, 0.463838, -13, coloured, 27, no, 2, 1, 0.433331, 13, coloured, 27, no, 3, 1, 0.538056, 13, coloured, 27, no, 4, 0, 0.593561, -13, coloured, 27, no, 5, 1, 0.447602, 13, coloured, 28, yes, 1, 1, NaN, NaN3, coloured, 28, yes, 2, 0, NaN, NaN3, coloured, 28, yes, 3, 0, 0.795878, 13, coloured, 28, yes, 4, 1, 0.458557, 13, coloured, 28, yes, 5, 1, 0.654214, 13, coloured, 29, yes, 1, 1, NaN, NaN3, coloured, 29, yes, 2, 1, NaN, NaN3, coloured, 29, yes, 3, 1, 0.428419, 13, coloured, 30, yes, 1, 0, NaN, NaN3, coloured, 30, yes, 2, 1, NaN, NaN3, coloured, 30, yes, 3, 1, 0.599009, 13, coloured, 30, yes, 4, 0, 0.613996, -13, coloured, 30, yes, 5, 0, 0.766279, -13, coloured, 1, yes, 1, 1, NaN, NaN3, coloured, 1, yes, 2, 1, NaN, NaN3, coloured, 1, yes, 3, 0, 0.704173, -13, coloured, 1, yes, 4, 0, 0.839617, -13, coloured, 2, yes, 1, 0, NaN, NaN3, coloured, 2, yes, 2, 0, NaN, NaN3, coloured, 2, yes, 3, 0, 0.856508, -13, coloured, 3, no, 1, 0, 0.499629, -13, coloured, 3, no, 2, 0, 0.543546, -13, coloured, 3, no, 3, 1, 0.641092, 13, coloured, 4, yes, 1, 0, NaN, NaN3, coloured, 4, yes, 2, 1, NaN, NaN3, coloured, 4, yes, 3, 0, 0.353941, -13, coloured, 5, no, 1, 1, 0.339964, 13, coloured, 5, no, 2, 0, 0.665593, -13, coloured, 5, no, 3, 0, 0.541912, -13, coloured, 5, no, 4, 1, 0.645392, -13, coloured, 5, no, 5, 0, 0.425100, -13, coloured, 6, yes, 1, 1, NaN, NaN3, coloured, 6, yes, 2, 0, NaN, NaN3, coloured, 6, yes, 3, 1, 2.001990, 33, coloured, 7, no, 1, 0, 0.484051, -13, coloured, 7, no, 2, 1, 0.461108, 13, coloured, 7, no, 3, 0, 0.571488, -13, coloured, 7, no, 4, 0, 0.399237, -13, coloured, 8, yes, 1, 0, NaN, NaN3, coloured, 8, yes, 2, 1, NaN, NaN3, coloured, 8, yes, 3, 0, 0.794861, -13, coloured, 9, no, 1, 1, 0.570124, 13, coloured, 9, no, 2, 1, 0.842309, 13, coloured, 9, no, 3, 1, 0.713545, 13, coloured, 9, no, 4, 1, 0.361824, 13, coloured, 9, no, 5, 0, 0.664230, -13, coloured, 10, yes, 1, 0, NaN, NaN3, coloured, 10, yes, 2, 1, NaN, NaN3, coloured, 10, yes, 3, 0, 0.999329, -13, coloured, 10, yes, 4, 1, 0.460436, 13, coloured, 11, yes, 1, 0, NaN, NaN3, coloured, 11, yes, 2, 0, NaN, NaN3, coloured, 11, yes, 3, 1, 0.486808, 13, coloured, 11, yes, 4, 0, 0.477215, -13, coloured, 11, yes, 5, 0, 0.619377, -13, coloured, 12, no, 1, 0, 0.565195, -13, coloured, 12, no, 2, 0, 0.654890, -13, coloured, 12, no, 3, 1, 0.470177, 13, coloured, 12, no, 4, 0, 0.542633, -13, coloured, 13, no, 1, 0, 0.665008, 13, coloured, 13, no, 2, 0, 0.558642, -13, coloured, 13, no, 3, 0, 0.629699, -13, coloured, 13, no, 4, 1, 0.759129, -13, coloured, 13, no, 5, 1, 0.563992, 13, coloured, 14, no, 1, 1, 0.653243, 13, coloured, 14, no, 2, 0, 0.546152, -13, coloured, 14, no, 3, 0, 0.635099, -13, coloured, 15, no, 1, 1, 0.442506, 13, coloured, 15, no, 2, 1, 0.476896, 13, coloured, 15, no, 3, 0, 0.647368, -13, coloured, 16, no, 1, 1, 0.782989, 13, coloured, 16, no, 2, 0, 0.588125, -13, coloured, 16, no, 3, 1, 0.507996, 13, coloured, 16, no, 4, 1, 0.385787, 13, coloured, 16, no, 5, 0, 0.848144, -13, coloured, 17, yes, 1, 0, NaN, NaN3, coloured, 17, yes, 2, 1, NaN, NaN3, coloured, 17, yes, 3, 1, 2.001783, 33, coloured, 17, yes, 4, 0, 2.001640, 33, coloured, 17, yes, 5, 0, 0.538668, -13, coloured, 18, no, 1, 0, 0.637996, -13, coloured, 18, no, 2, 0, 0.617178, -13, coloured, 18, no, 3, 0, 0.540530, -13, coloured, 19, no, 1, 1, 0.732805, 13, coloured, 19, no, 2, 1, 0.535288, 13, coloured, 19, no, 3, 1, 0.431088, 13, coloured, 20, no, 1, 1, 0.430637, -13, coloured, 20, no, 2, 1, 0.515775, 13, coloured, 20, no, 3, 1, 0.350010, 13, coloured, 20, no, 4, 1, 0.459758, 13, coloured, 20, no, 5, 1, 0.525123, 13, coloured, 21, no, 1, 1, 0.407474, 13, coloured, 21, no, 2, 1, 2.001867, 33, coloured, 21, no, 3, 0, 0.576995, -13, coloured, 22, yes, 1, 1, NaN, NaN3, coloured, 22, yes, 2, 1, NaN, NaN3, coloured, 22, yes, 3, 0, 0.611434, -13, coloured, 23, yes, 1, 0, NaN, NaN3, coloured, 23, yes, 2, 0, NaN, NaN3, coloured, 23, yes, 3, 0, 0.667289, -13, coloured, 23, yes, 4, 0, 0.644721, -13, coloured, 24, yes, 1, 0, NaN, NaN3, coloured, 24, yes, 2, 1, NaN, NaN3, coloured, 24, yes, 3, 0, 0.389582, -13, coloured, 24, yes, 4, 1, 0.550168, 13, coloured, 25, yes, 1, 0, NaN, NaN3, coloured, 25, yes, 2, 0, NaN, NaN3, coloured, 25, yes, 3, 1, 0.881573, 13, coloured, 25, yes, 4, 0, 0.649584, -13, coloured, 25, yes, 5, 0, 0.559263, -13, coloured, 26, no, 1, 0, 0.829207, -13, coloured, 26, no, 2, 0, 0.437666, -13, coloured, 26, no, 3, 1, 0.495788, 13, coloured, 26, no, 4, 1, 0.519332, 13, coloured, 26, no, 5, 1, 0.446180, 13, coloured, 27, no, 1, 1, 0.501635, 13, coloured, 27, no, 2, 1, 0.259505, 13, coloured, 27, no, 3, 0, 0.424870, -13, coloured, 28, yes, 1, 0, NaN, NaN3, coloured, 28, yes, 2, 0, NaN, NaN3, coloured, 28, yes, 3, 0, 0.558839, -13, coloured, 28, yes, 4, 0, 0.314079, -13, coloured, 29, yes, 1, 1, NaN, NaN3, coloured, 29, yes, 2, 0, NaN, NaN3, coloured, 29, yes, 3, 0, 0.678270, -13, coloured, 29, yes, 4, 0, 0.422679, -13, coloured, 29, yes, 5, 1, 0.587008, 13, coloured, 30, yes, 1, 0, NaN, NaN3, coloured, 30, yes, 2, 1, NaN, NaN3, coloured, 30, yes, 3, 1, 0.509955, -13, coloured, 30, yes, 4, 1, 0.389350, 13, coloured, 1, yes, 1, 1, NaN, NaN3, coloured, 1, yes, 2, 1, NaN, NaN3, coloured, 1, yes, 3, 0, 0.525285, -13, coloured, 1, yes, 4, 0, 0.572557, -13, coloured, 1, yes, 5, 1, 0.224057, 13, coloured, 2, yes, 1, 0, NaN, NaN3, coloured, 2, yes, 2, 1, NaN, NaN3, coloured, 2, yes, 3, 0, 0.498297, -13, coloured, 2, yes, 4, 0, 0.743120, -13, coloured, 3, no, 1, 0, 0.766191, -13, coloured, 3, no, 2, 1, 0.354927, 13, coloured, 3, no, 3, 0, 0.526306, -13, coloured, 3, no, 4, 1, 0.668429, 13, coloured, 4, yes, 1, 0, NaN, NaN3, coloured, 4, yes, 2, 1, NaN, NaN3, coloured, 4, yes, 3, 1, 0.374677, 13, coloured, 4, yes, 4, 1, 0.347982, 13, coloured, 4, yes, 5, 1, 0.343847, 13, coloured, 5, no, 1, 0, 0.463997, -13, coloured, 5, no, 2, 0, 0.538815, -13, coloured, 5, no, 3, 0, 0.467259, -13, coloured, 5, no, 4, 0, 0.521188, -13, coloured, 5, no, 5, 0, 0.703742, -13, coloured, 6, yes, 1, 1, NaN, NaN3, coloured, 6, yes, 2, 0, NaN, NaN3, coloured, 6, yes, 3, 0, 0.780176, -13, coloured, 6, yes, 4, 0, 0.418132, -13, coloured, 6, yes, 5, 0, 2.001683, 33, coloured, 7, no, 1, 1, 0.591201, 13, coloured, 7, no, 2, 1, 0.631854, 13, coloured, 7, no, 3, 1, 0.442423, 13, coloured, 7, no, 4, 0, 0.521151, -13, coloured, 7, no, 5, 0, 0.665622, -13, coloured, 8, yes, 1, 1, NaN, NaN3, coloured, 8, yes, 2, 0, NaN, NaN3, coloured, 8, yes, 3, 1, 0.612451, 13, coloured, 8, yes, 4, 1, 0.215558, 13, coloured, 8, yes, 5, 1, 0.437036, 13, coloured, 9, no, 1, 0, 0.438234, -13, coloured, 9, no, 2, 0, 0.514376, -13, coloured, 9, no, 3, 1, 0.302197, 13, coloured, 9, no, 4, 0, 0.613144, -13, coloured, 9, no, 5, 0, 1.108844, -13, coloured, 10, yes, 1, 1, NaN, NaN3, coloured, 10, yes, 2, 0, NaN, NaN3, coloured, 10, yes, 3, 0, 2.001894, 33, coloured, 11, yes, 1, 0, NaN, NaN3, coloured, 11, yes, 2, 1, NaN, NaN3, coloured, 11, yes, 3, 0, 0.421362, -13, coloured, 12, no, 1, 1, 0.662280, 13, coloured, 12, no, 2, 0, 0.439673, -13, coloured, 12, no, 3, 0, 0.670020, -13, coloured, 12, no, 4, 1, 0.517506, 13, coloured, 13, no, 1, 0, 0.484557, -13, coloured, 13, no, 2, 1, 0.647073, 13, coloured, 13, no, 3, 0, 0.695908, -13, coloured, 13, no, 4, 0, 0.710320, -13, coloured, 13, no, 5, 0, 0.540859, -13, coloured, 14, no, 1, 0, 0.918064, -13, coloured, 14, no, 2, 1, 0.447538, 13, coloured, 14, no, 3, 1, 0.560193, 13, coloured, 14, no, 4, 1, 0.511783, 13, coloured, 14, no, 5, 1, 0.551917, 13, coloured, 15, no, 1, 1, 1.035496, 13, coloured, 15, no, 2, 0, 0.899374, -13, coloured, 15, no, 3, 1, 0.611164, 13, coloured, 16, no, 1, 0, 0.618408, -13, coloured, 16, no, 2, 1, 0.644774, 13, coloured, 16, no, 3, 1, 0.920707, 13, coloured, 16, no, 4, 1, 0.489968, 13, coloured, 16, no, 5, 0, 0.548404, -13, coloured, 17, yes, 1, 1, NaN, NaN3, coloured, 17, yes, 2, 1, NaN, NaN3, coloured, 17, yes, 3, 0, 0.495530, -13, coloured, 17, yes, 4, 1, 0.880940, 13, coloured, 18, no, 1, 1, 0.366580, 13, coloured, 18, no, 2, 1, 0.690264, 13, coloured, 18, no, 3, 0, 0.460278, -13, coloured, 18, no, 4, 0, 0.553235, -13, coloured, 19, no, 1, 0, 1.164657, -13, coloured, 19, no, 2, 0, 0.627273, -13, coloured, 19, no, 3, 0, 0.481566, -13, coloured, 19, no, 4, 0, 0.666568, -13, coloured, 19, no, 5, 0, 0.667049, -13, coloured, 20, no, 1, 1, 0.629437, 13, coloured, 20, no, 2, 1, 0.871997, 13, coloured, 20, no, 3, 0, 0.830484, -13, coloured, 21, no, 1, 0, 0.632166, -13, coloured, 21, no, 2, 1, 0.495009, 13, coloured, 21, no, 3, 1, 0.479691, 13, coloured, 21, no, 4, 0, 0.503090, -13, coloured, 22, yes, 1, 0, NaN, NaN3, coloured, 22, yes, 2, 1, NaN, NaN3, coloured, 22, yes, 3, 1, 0.536539, 13, coloured, 22, yes, 4, 0, 0.344133, -13, coloured, 23, yes, 1, 1, NaN, NaN3, coloured, 23, yes, 2, 0, NaN, NaN3, coloured, 23, yes, 3, 1, 0.775844, 13, coloured, 23, yes, 4, 1, 0.371385, 13, coloured, 23, yes, 5, 0, 0.544879, -13, coloured, 24, yes, 1, 0, NaN, NaN3, coloured, 24, yes, 2, 1, NaN, NaN3, coloured, 24, yes, 3, 0, 0.627643, -13, coloured, 24, yes, 4, 0, 0.412453, -13, coloured, 25, yes, 1, 1, NaN, NaN3, coloured, 25, yes, 2, 0, NaN, NaN3, coloured, 25, yes, 3, 0, 0.425845, -13, coloured, 25, yes, 4, 1, 0.508899, -13, coloured, 25, yes, 5, 0, 0.397148, -13, coloured, 26, no, 1, 0, 0.578190, -13, coloured, 26, no, 2, 1, 0.637900, 13, coloured, 26, no, 3, 1, 0.503718, 13, coloured, 26, no, 4, 1, 0.454497, 13, coloured, 26, no, 5, 0, 0.310426, 13, coloured, 27, no, 1, 1, 0.438801, 13, coloured, 27, no, 2, 1, 0.394617, 13, coloured, 27, no, 3, 0, 0.755483, -13, coloured, 27, no, 4, 1, 0.464081, 13, coloured, 27, no, 5, 0, 0.735526, -13, coloured, 28, yes, 1, 0, NaN, NaN3, coloured, 28, yes, 2, 1, NaN, NaN3, coloured, 28, yes, 3, 1, 0.841201, 13, coloured, 28, yes, 4, 0, 0.562907, -13, coloured, 29, yes, 1, 1, NaN, NaN3, coloured, 29, yes, 2, 0, NaN, NaN3, coloured, 29, yes, 3, 0, 1.124361, -13, coloured, 30, yes, 1, 1, NaN, NaN3, coloured, 30, yes, 2, 0, NaN, NaN3, coloured, 30, yes, 3, 1, 0.493213, 13, coloured, 30, yes, 4, 1, 0.351812, 14, coloured, 1, yes, 1, 1, NaN, NaN4, coloured, 1, yes, 2, 1, NaN, NaN4, coloured, 1, yes, 3, 1, 2.001370, 34, coloured, 1, yes, 4, 1, 1.186742, 14, coloured, 1, yes, 5, 0, 1.247918, -14, coloured, 2, yes, 1, 1, NaN, NaN4, coloured, 2, yes, 2, 0, NaN, NaN4, coloured, 2, yes, 3, 0, 1.489711, 14, coloured, 3, no, 1, 0, 0.750814, -14, coloured, 3, no, 2, 1, 0.780708, 14, coloured, 3, no, 3, 1, 0.896625, 14, coloured, 4, yes, 1, 0, NaN, NaN4, coloured, 4, yes, 2, 0, NaN, NaN4, coloured, 4, yes, 3, 0, 0.685289, -14, coloured, 4, yes, 4, 0, 0.800742, -14, coloured, 5, no, 1, 1, 0.877319, 14, coloured, 5, no, 2, 0, 0.649302, -14, coloured, 5, no, 3, 0, 0.622834, -14, coloured, 6, yes, 1, 1, NaN, NaN4, coloured, 6, yes, 2, 0, NaN, NaN4, coloured, 6, yes, 3, 0, 0.701406, -14, coloured, 6, yes, 4, 0, 0.714969, -14, coloured, 6, yes, 5, 0, 0.709346, -14, coloured, 7, no, 1, 0, 1.203266, -14, coloured, 7, no, 2, 0, 0.837076, -14, coloured, 7, no, 3, 0, 0.876630, -14, coloured, 7, no, 4, 1, 1.505091, 14, coloured, 7, no, 5, 0, 0.677759, -14, coloured, 8, yes, 1, 0, NaN, NaN4, coloured, 8, yes, 2, 0, NaN, NaN4, coloured, 8, yes, 3, 0, 0.912069, -14, coloured, 8, yes, 4, 1, 0.676328, 14, coloured, 8, yes, 5, 0, 0.713816, -14, coloured, 9, no, 1, 0, 0.552401, -14, coloured, 9, no, 2, 1, 0.646974, 14, coloured, 9, no, 3, 1, 0.719045, 14, coloured, 9, no, 4, 0, 0.720266, -14, coloured, 10, yes, 1, 1, NaN, NaN4, coloured, 10, yes, 2, 1, NaN, NaN4, coloured, 10, yes, 3, 1, 0.561946, 14, coloured, 10, yes, 4, 1, 0.578131, 14, coloured, 11, yes, 1, 1, NaN, NaN4, coloured, 11, yes, 2, 1, NaN, NaN4, coloured, 11, yes, 3, 1, 1.078631, 14, coloured, 11, yes, 4, 0, 1.165594, -14, coloured, 11, yes, 5, 1, 2.001820, 34, coloured, 12, no, 1, 0, 1.006755, 14, coloured, 12, no, 2, 0, 0.621197, -14, coloured, 12, no, 3, 0, 0.748871, -14, coloured, 13, no, 1, 0, 0.584483, -14, coloured, 13, no, 2, 0, 0.534331, -14, coloured, 13, no, 3, 1, 1.961274, 14, coloured, 13, no, 4, 0, 0.645357, -14, coloured, 13, no, 5, 1, 0.495677, 14, coloured, 14, no, 1, 1, 0.529239, -14, coloured, 14, no, 2, 1, 0.615390, 14, coloured, 14, no, 3, 0, 0.620545, -14, coloured, 14, no, 4, 0, 0.527620, -14, coloured, 14, no, 5, 0, 0.902974, -14, coloured, 15, no, 1, 0, 0.640317, -14, coloured, 15, no, 2, 0, 0.649551, -14, coloured, 15, no, 3, 0, 0.566133, -14, coloured, 15, no, 4, 0, 0.591895, -14, coloured, 16, no, 1, 0, 0.693644, -14, coloured, 16, no, 2, 1, 0.561570, -14, coloured, 16, no, 3, 0, 0.993162, -14, coloured, 17, yes, 1, 0, NaN, NaN4, coloured, 17, yes, 2, 1, NaN, NaN4, coloured, 17, yes, 3, 0, 1.008423, -14, coloured, 17, yes, 4, 0, 0.690877, -14, coloured, 18, no, 1, 0, 0.913594, -14, coloured, 18, no, 2, 0, 0.689423, -14, coloured, 18, no, 3, 0, 0.632047, -14, coloured, 19, no, 1, 1, 0.783141, 14, coloured, 19, no, 2, 1, 0.709284, 14, coloured, 19, no, 3, 0, 0.658620, -14, coloured, 19, no, 4, 1, 0.676045, 14, coloured, 20, no, 1, 1, 0.704881, 14, coloured, 20, no, 2, 1, 0.845970, 14, coloured, 20, no, 3, 1, 0.812444, 14, coloured, 20, no, 4, 0, 0.690866, -14, coloured, 21, no, 1, 0, 1.241309, -14, coloured, 21, no, 2, 0, 1.214769, 14, coloured, 21, no, 3, 0, 0.696873, -14, coloured, 22, yes, 1, 0, NaN, NaN4, coloured, 22, yes, 2, 0, NaN, NaN4, coloured, 22, yes, 3, 0, 0.815611, -14, coloured, 23, yes, 1, 1, NaN, NaN4, coloured, 23, yes, 2, 0, NaN, NaN4, coloured, 23, yes, 3, 0, 0.725281, -14, coloured, 23, yes, 4, 1, 0.845065, 14, coloured, 23, yes, 5, 1, 0.507944, 14, coloured, 24, yes, 1, 1, NaN, NaN4, coloured, 24, yes, 2, 1, NaN, NaN4, coloured, 24, yes, 3, 1, 0.649030, 14, coloured, 24, yes, 4, 1, 0.914720, 14, coloured, 25, yes, 1, 1, NaN, NaN4, coloured, 25, yes, 2, 0, NaN, NaN4, coloured, 25, yes, 3, 0, 0.649583, -14, coloured, 25, yes, 4, 0, 0.672791, -14, coloured, 26, no, 1, 1, 0.625279, 14, coloured, 26, no, 2, 1, 0.831898, 14, coloured, 26, no, 3, 1, 0.745713, 14, coloured, 26, no, 4, 0, 2.001886, 34, coloured, 26, no, 5, 1, 0.539628, 14, coloured, 27, no, 1, 1, 0.867029, 14, coloured, 27, no, 2, 0, 0.608015, -14, coloured, 27, no, 3, 1, 0.631385, 14, coloured, 27, no, 4, 1, 0.617552, 14, coloured, 27, no, 5, 0, 0.713700, -14, coloured, 28, yes, 1, 0, NaN, NaN4, coloured, 28, yes, 2, 0, NaN, NaN4, coloured, 28, yes, 3, 1, 0.941034, -14, coloured, 28, yes, 4, 0, 0.700706, -14, coloured, 28, yes, 5, 1, 0.660712, 14, coloured, 29, yes, 1, 1, NaN, NaN4, coloured, 29, yes, 2, 1, NaN, NaN4, coloured, 29, yes, 3, 1, 0.729587, 14, coloured, 29, yes, 4, 1, 0.645305, 14, coloured, 29, yes, 5, 0, 0.500103, -14, coloured, 30, yes, 1, 1, NaN, NaN4, coloured, 30, yes, 2, 1, NaN, NaN4, coloured, 30, yes, 3, 1, 1.367641, 14, coloured, 30, yes, 4, 1, 0.501074, 14, coloured, 30, yes, 5, 0, 0.466440, -14, coloured, 1, yes, 1, 0, NaN, NaN4, coloured, 1, yes, 2, 1, NaN, NaN4, coloured, 1, yes, 3, 1, 0.590796, 14, coloured, 2, yes, 1, 0, NaN, NaN4, coloured, 2, yes, 2, 0, NaN, NaN4, coloured, 2, yes, 3, 1, 0.799017, 14, coloured, 2, yes, 4, 0, 0.722753, -14, coloured, 2, yes, 5, 1, 0.684632, 14, coloured, 3, no, 1, 0, 0.751822, -14, coloured, 3, no, 2, 1, 0.907898, 14, coloured, 3, no, 3, 0, 0.889435, -14, coloured, 4, yes, 1, 0, NaN, NaN4, coloured, 4, yes, 2, 1, NaN, NaN4, coloured, 4, yes, 3, 1, 0.590088, 14, coloured, 4, yes, 4, 0, 0.619834, -14, coloured, 4, yes, 5, 0, 0.662283, -14, coloured, 5, no, 1, 0, 1.773939, -14, coloured, 5, no, 2, 0, 0.546946, -14, coloured, 5, no, 3, 1, 0.628522, 14, coloured, 5, no, 4, 0, 0.544638, -14, coloured, 6, yes, 1, 1, NaN, NaN4, coloured, 6, yes, 2, 1, NaN, NaN4, coloured, 6, yes, 3, 1, 0.749115, 14, coloured, 6, yes, 4, 1, 0.476887, 14, coloured, 6, yes, 5, 1, 0.692896, 14, coloured, 7, no, 1, 1, 0.721699, 14, coloured, 7, no, 2, 0, 0.857341, -14, coloured, 7, no, 3, 1, 0.609919, 14, coloured, 8, yes, 1, 0, NaN, NaN4, coloured, 8, yes, 2, 1, NaN, NaN4, coloured, 8, yes, 3, 1, 0.740626, 14, coloured, 8, yes, 4, 0, 0.712765, -14, coloured, 9, no, 1, 0, 0.764325, -14, coloured, 9, no, 2, 1, 0.653075, 14, coloured, 9, no, 3, 1, 0.758673, 14, coloured, 9, no, 4, 1, 0.323712, 14, coloured, 9, no, 5, 0, 0.528815, -14, coloured, 10, yes, 1, 1, NaN, NaN4, coloured, 10, yes, 2, 0, NaN, NaN4, coloured, 10, yes, 3, 1, 0.644077, 14, coloured, 11, yes, 1, 1, NaN, NaN4, coloured, 11, yes, 2, 1, NaN, NaN4, coloured, 11, yes, 3, 1, 0.714434, 14, coloured, 12, no, 1, 1, 0.692251, 14, coloured, 12, no, 2, 1, 0.398944, 14, coloured, 12, no, 3, 0, 0.890833, -14, coloured, 12, no, 4, 0, 0.716449, -14, coloured, 12, no, 5, 0, 0.658629, -14, coloured, 13, no, 1, 1, 0.617895, 14, coloured, 13, no, 2, 0, 0.645066, -14, coloured, 13, no, 3, 1, 0.636283, 14, coloured, 14, no, 1, 1, 0.564856, 14, coloured, 14, no, 2, 0, 0.546269, -14, coloured, 14, no, 3, 0, 0.673198, -14, coloured, 14, no, 4, 0, 0.593780, -14, coloured, 14, no, 5, 0, 0.659806, -14, coloured, 15, no, 1, 0, 0.638360, -14, coloured, 15, no, 2, 0, 0.526681, -14, coloured, 15, no, 3, 1, 0.630892, 14, coloured, 15, no, 4, 1, 0.854335, 14, coloured, 15, no, 5, 1, 0.510439, 14, coloured, 16, no, 1, 0, 0.767014, -14, coloured, 16, no, 2, 0, 0.601880, -14, coloured, 16, no, 3, 0, 0.564484, -14, coloured, 16, no, 4, 0, 0.535960, -14, coloured, 16, no, 5, 0, 0.557135, -14, coloured, 17, yes, 1, 1, NaN, NaN4, coloured, 17, yes, 2, 1, NaN, NaN4, coloured, 17, yes, 3, 0, 0.528168, -14, coloured, 17, yes, 4, 0, 0.707106, -14, coloured, 17, yes, 5, 0, 0.711749, -14, coloured, 18, no, 1, 0, 0.650982, -14, coloured, 18, no, 2, 0, 0.584496, -14, coloured, 18, no, 3, 0, 0.570808, -14, coloured, 18, no, 4, 1, 0.670066, 14, coloured, 19, no, 1, 1, 0.997966, 14, coloured, 19, no, 2, 0, 0.597732, -14, coloured, 19, no, 3, 0, 1.018172, -14, coloured, 20, no, 1, 1, 0.725692, 14, coloured, 20, no, 2, 1, 0.725238, 14, coloured, 20, no, 3, 0, 0.800192, -14, coloured, 20, no, 4, 0, 0.556079, -14, coloured, 21, no, 1, 1, 0.528922, 14, coloured, 21, no, 2, 0, 0.674679, -14, coloured, 21, no, 3, 1, 0.544232, 14, coloured, 21, no, 4, 1, 0.878631, 14, coloured, 21, no, 5, 1, 0.787752, 14, coloured, 22, yes, 1, 1, NaN, NaN4, coloured, 22, yes, 2, 1, NaN, NaN4, coloured, 22, yes, 3, 0, 0.880869, -14, coloured, 22, yes, 4, 1, 0.532842, 14, coloured, 22, yes, 5, 0, 0.591228, -14, coloured, 23, yes, 1, 0, NaN, NaN4, coloured, 23, yes, 2, 1, NaN, NaN4, coloured, 23, yes, 3, 1, 0.678118, 14, coloured, 24, yes, 1, 0, NaN, NaN4, coloured, 24, yes, 2, 0, NaN, NaN4, coloured, 24, yes, 3, 1, 0.637563, 14, coloured, 24, yes, 4, 0, 0.485656, -14, coloured, 25, yes, 1, 0, NaN, NaN4, coloured, 25, yes, 2, 1, NaN, NaN4, coloured, 25, yes, 3, 1, 0.729224, 14, coloured, 25, yes, 4, 1, 0.450010, 14, coloured, 25, yes, 5, 1, 0.548760, 14, coloured, 26, no, 1, 1, 0.889960, 14, coloured, 26, no, 2, 1, 0.824045, 14, coloured, 26, no, 3, 1, 0.454428, 14, coloured, 26, no, 4, 0, 0.737920, -14, coloured, 27, no, 1, 1, 0.651271, 14, coloured, 27, no, 2, 1, 0.500232, 14, coloured, 27, no, 3, 1, 0.642198, 14, coloured, 27, no, 4, 0, 1.008347, -14, coloured, 27, no, 5, 1, 0.643614, 14, coloured, 28, yes, 1, 1, NaN, NaN4, coloured, 28, yes, 2, 0, NaN, NaN4, coloured, 28, yes, 3, 0, 0.599220, -14, coloured, 28, yes, 4, 1, 0.573737, 14, coloured, 28, yes, 5, 1, 0.608467, 14, coloured, 29, yes, 1, 1, NaN, NaN4, coloured, 29, yes, 2, 1, NaN, NaN4, coloured, 29, yes, 3, 1, 0.481040, 14, coloured, 30, yes, 1, 0, NaN, NaN4, coloured, 30, yes, 2, 1, NaN, NaN4, coloured, 30, yes, 3, 1, 0.567606, 14, coloured, 30, yes, 4, 0, 0.552659, -14, coloured, 30, yes, 5, 0, 0.517857, -14, coloured, 1, yes, 1, 1, NaN, NaN4, coloured, 1, yes, 2, 1, NaN, NaN4, coloured, 1, yes, 3, 0, 0.595381, -14, coloured, 1, yes, 4, 0, 0.640263, -14, coloured, 2, yes, 1, 0, NaN, NaN4, coloured, 2, yes, 2, 0, NaN, NaN4, coloured, 2, yes, 3, 0, 1.081269, -14, coloured, 3, no, 1, 0, 0.461020, -14, coloured, 3, no, 2, 0, 0.479933, -14, coloured, 3, no, 3, 1, 0.739009, 14, coloured, 4, yes, 1, 0, NaN, NaN4, coloured, 4, yes, 2, 1, NaN, NaN4, coloured, 4, yes, 3, 0, 0.591153, -14, coloured, 5, no, 1, 1, 0.637465, 14, coloured, 5, no, 2, 0, 0.789863, -14, coloured, 5, no, 3, 0, 0.568521, -14, coloured, 5, no, 4, 1, 0.611955, 14, coloured, 5, no, 5, 0, 0.476092, -14, coloured, 6, yes, 1, 1, NaN, NaN4, coloured, 6, yes, 2, 0, NaN, NaN4, coloured, 6, yes, 3, 1, 0.739548, 14, coloured, 7, no, 1, 0, 0.935859, -14, coloured, 7, no, 2, 1, 0.615380, 14, coloured, 7, no, 3, 0, 0.768463, -14, coloured, 7, no, 4, 0, 0.464880, -14, coloured, 8, yes, 1, 0, NaN, NaN4, coloured, 8, yes, 2, 1, NaN, NaN4, coloured, 8, yes, 3, 0, 0.733492, -14, coloured, 9, no, 1, 1, 0.572075, 14, coloured, 9, no, 2, 1, 0.631829, 14, coloured, 9, no, 3, 1, 0.691590, 14, coloured, 9, no, 4, 1, 0.558113, 14, coloured, 9, no, 5, 0, 0.740813, -14, coloured, 10, yes, 1, 0, NaN, NaN4, coloured, 10, yes, 2, 1, NaN, NaN4, coloured, 10, yes, 3, 0, 0.545729, -14, coloured, 10, yes, 4, 1, 0.958215, 14, coloured, 11, yes, 1, 0, NaN, NaN4, coloured, 11, yes, 2, 0, NaN, NaN4, coloured, 11, yes, 3, 1, 0.518707, 14, coloured, 11, yes, 4, 0, 0.521661, -14, coloured, 11, yes, 5, 0, 0.576714, -14, coloured, 12, no, 1, 0, 0.513376, -14, coloured, 12, no, 2, 0, 0.458827, -14, coloured, 12, no, 3, 1, 0.969993, 14, coloured, 12, no, 4, 0, 0.436915, -14, coloured, 13, no, 1, 0, 0.489474, -14, coloured, 13, no, 2, 0, 0.495459, -14, coloured, 13, no, 3, 0, 0.552919, -14, coloured, 13, no, 4, 1, 0.596279, 14, coloured, 13, no, 5, 1, 0.586463, 14, coloured, 14, no, 1, 1, 0.539829, 14, coloured, 14, no, 2, 0, 0.434378, -14, coloured, 14, no, 3, 0, 0.525104, -14, coloured, 15, no, 1, 1, 0.638750, 14, coloured, 15, no, 2, 1, 0.516418, 14, coloured, 15, no, 3, 0, 0.887499, -14, coloured, 16, no, 1, 1, 0.660937, 14, coloured, 16, no, 2, 0, 0.514655, -14, coloured, 16, no, 3, 1, 0.585114, 14, coloured, 16, no, 4, 1, 0.551592, 14, coloured, 16, no, 5, 0, 0.589595, -14, coloured, 17, yes, 1, 0, NaN, NaN4, coloured, 17, yes, 2, 1, NaN, NaN4, coloured, 17, yes, 3, 1, 0.564607, 14, coloured, 17, yes, 4, 0, 0.492162, -14, coloured, 17, yes, 5, 0, 0.544401, -14, coloured, 18, no, 1, 0, 0.529924, -14, coloured, 18, no, 2, 0, 0.643936, -14, coloured, 18, no, 3, 0, 0.607848, -14, coloured, 19, no, 1, 1, 0.353256, 14, coloured, 19, no, 2, 1, 0.400455, 14, coloured, 19, no, 3, 1, 0.505077, -14, coloured, 20, no, 1, 1, 1.113392, 14, coloured, 20, no, 2, 1, 0.512402, 14, coloured, 20, no, 3, 1, 1.091037, 14, coloured, 20, no, 4, 1, 0.607845, 14, coloured, 20, no, 5, 1, 0.715216, 14, coloured, 21, no, 1, 1, 0.745748, 14, coloured, 21, no, 2, 1, 0.802391, 14, coloured, 21, no, 3, 0, 0.623196, -14, coloured, 22, yes, 1, 1, NaN, NaN4, coloured, 22, yes, 2, 1, NaN, NaN4, coloured, 22, yes, 3, 0, 0.511153, -14, coloured, 23, yes, 1, 0, NaN, NaN4, coloured, 23, yes, 2, 0, NaN, NaN4, coloured, 23, yes, 3, 0, 0.463837, -14, coloured, 23, yes, 4, 0, 0.825415, -14, coloured, 24, yes, 1, 0, NaN, NaN4, coloured, 24, yes, 2, 1, NaN, NaN4, coloured, 24, yes, 3, 0, 0.648965, -14, coloured, 24, yes, 4, 1, 0.574805, 14, coloured, 25, yes, 1, 0, NaN, NaN4, coloured, 25, yes, 2, 0, NaN, NaN4, coloured, 25, yes, 3, 1, 0.455457, 14, coloured, 25, yes, 4, 0, 0.698485, -14, coloured, 25, yes, 5, 0, 0.476843, -14, coloured, 26, no, 1, 0, 0.517660, -14, coloured, 26, no, 2, 0, 0.523682, -14, coloured, 26, no, 3, 1, 0.408138, 14, coloured, 26, no, 4, 1, 0.677458, 14, coloured, 26, no, 5, 1, 0.456208, 14, coloured, 27, no, 1, 1, 0.443019, 14, coloured, 27, no, 2, 1, 0.404040, 14, coloured, 27, no, 3, 0, 0.624734, -14, coloured, 28, yes, 1, 0, NaN, NaN4, coloured, 28, yes, 2, 0, NaN, NaN4, coloured, 28, yes, 3, 0, 0.987053, -14, coloured, 28, yes, 4, 0, 0.670975, -14, coloured, 29, yes, 1, 1, NaN, NaN4, coloured, 29, yes, 2, 0, NaN, NaN4, coloured, 29, yes, 3, 0, 0.608546, -14, coloured, 29, yes, 4, 0, 0.406223, -14, coloured, 29, yes, 5, 1, 0.501692, 14, coloured, 30, yes, 1, 0, NaN, NaN4, coloured, 30, yes, 2, 1, NaN, NaN4, coloured, 30, yes, 3, 1, 0.620360, 14, coloured, 30, yes, 4, 1, 0.665705, 14, coloured, 1, yes, 1, 1, NaN, NaN4, coloured, 1, yes, 2, 1, NaN, NaN4, coloured, 1, yes, 3, 0, 0.468645, -14, coloured, 1, yes, 4, 0, 0.514141, -14, coloured, 1, yes, 5, 1, 0.336889, 14, coloured, 2, yes, 1, 0, NaN, NaN4, coloured, 2, yes, 2, 1, NaN, NaN4, coloured, 2, yes, 3, 0, 0.457089, -14, coloured, 2, yes, 4, 0, 0.805009, -14, coloured, 3, no, 1, 0, 0.429841, -14, coloured, 3, no, 2, 1, 0.367509, 14, coloured, 3, no, 3, 0, 0.411716, -14, coloured, 3, no, 4, 1, 0.586705, 14, coloured, 4, yes, 1, 0, NaN, NaN4, coloured, 4, yes, 2, 1, NaN, NaN4, coloured, 4, yes, 3, 1, 0.583286, 14, coloured, 4, yes, 4, 1, 0.432507, 14, coloured, 4, yes, 5, 1, 0.571027, 14, coloured, 5, no, 1, 0, 0.408701, -14, coloured, 5, no, 2, 0, 0.470157, -14, coloured, 5, no, 3, 0, 0.457246, -14, coloured, 5, no, 4, 0, 0.614423, -14, coloured, 5, no, 5, 0, 0.759881, -14, coloured, 6, yes, 1, 1, NaN, NaN4, coloured, 6, yes, 2, 0, NaN, NaN4, coloured, 6, yes, 3, 0, 0.676499, -14, coloured, 6, yes, 4, 0, 0.503470, -14, coloured, 6, yes, 5, 0, 0.514631, -14, coloured, 7, no, 1, 1, 0.684796, 14, coloured, 7, no, 2, 1, 0.668927, 14, coloured, 7, no, 3, 1, 0.437468, 14, coloured, 7, no, 4, 0, 0.551794, -14, coloured, 7, no, 5, 0, 0.537771, -14, coloured, 8, yes, 1, 1, NaN, NaN4, coloured, 8, yes, 2, 0, NaN, NaN4, coloured, 8, yes, 3, 1, 0.813813, 14, coloured, 8, yes, 4, 1, 0.732140, 14, coloured, 8, yes, 5, 1, 0.572515, 14, coloured, 9, no, 1, 0, 0.620422, -14, coloured, 9, no, 2, 0, 0.670924, -14, coloured, 9, no, 3, 1, 0.487416, 14, coloured, 9, no, 4, 0, 0.937294, -14, coloured, 9, no, 5, 0, 0.608418, -14, coloured, 10, yes, 1, 1, NaN, NaN4, coloured, 10, yes, 2, 0, NaN, NaN4, coloured, 10, yes, 3, 0, 0.585566, -14, coloured, 11, yes, 1, 0, NaN, NaN4, coloured, 11, yes, 2, 1, NaN, NaN4, coloured, 11, yes, 3, 0, 0.401919, -14, coloured, 12, no, 1, 1, 0.686532, 14, coloured, 12, no, 2, 0, 0.448307, -14, coloured, 12, no, 3, 0, 0.734357, -14, coloured, 12, no, 4, 1, 0.660095, 14, coloured, 13, no, 1, 0, 0.477074, -14, coloured, 13, no, 2, 1, 0.695704, 14, coloured, 13, no, 3, 0, 0.565356, -14, coloured, 13, no, 4, 0, 0.557283, -14, coloured, 13, no, 5, 0, 0.562022, -14, coloured, 14, no, 1, 0, 0.611450, -14, coloured, 14, no, 2, 1, 0.598500, 14, coloured, 14, no, 3, 1, 0.546006, 14, coloured, 14, no, 4, 1, 0.473515, 14, coloured, 14, no, 5, 1, 0.455939, 14, coloured, 15, no, 1, 1, 0.775666, 14, coloured, 15, no, 2, 0, 0.573076, -14, coloured, 15, no, 3, 1, 0.653791, 14, coloured, 16, no, 1, 0, 0.790663, -14, coloured, 16, no, 2, 1, 0.559954, 14, coloured, 16, no, 3, 1, 0.694056, 14, coloured, 16, no, 4, 1, 0.483407, 14, coloured, 16, no, 5, 0, 0.465735, -14, coloured, 17, yes, 1, 1, NaN, NaN4, coloured, 17, yes, 2, 1, NaN, NaN4, coloured, 17, yes, 3, 0, 1.195071, -14, coloured, 17, yes, 4, 1, 0.578877, 14, coloured, 18, no, 1, 1, 0.466579, 14, coloured, 18, no, 2, 1, 0.519902, 14, coloured, 18, no, 3, 0, 0.562355, -14, coloured, 18, no, 4, 0, 0.866663, -14, coloured, 19, no, 1, 0, 0.420130, -14, coloured, 19, no, 2, 0, 0.592169, -14, coloured, 19, no, 3, 0, 0.385344, -14, coloured, 19, no, 4, 0, 0.488095, -14, coloured, 19, no, 5, 0, 0.880228, -14, coloured, 20, no, 1, 1, 0.664266, 14, coloured, 20, no, 2, 1, 0.651033, -14, coloured, 20, no, 3, 0, 0.677578, -14, coloured, 21, no, 1, 0, 0.864122, 14, coloured, 21, no, 2, 1, 0.674355, 14, coloured, 21, no, 3, 1, 0.432211, 14, coloured, 21, no, 4, 0, 0.638687, -14, coloured, 22, yes, 1, 0, NaN, NaN4, coloured, 22, yes, 2, 1, NaN, NaN4, coloured, 22, yes, 3, 1, 0.602142, 14, coloured, 22, yes, 4, 0, 0.567345, -14, coloured, 23, yes, 1, 1, NaN, NaN4, coloured, 23, yes, 2, 0, NaN, NaN4, coloured, 23, yes, 3, 1, 0.951198, 14, coloured, 23, yes, 4, 1, 0.449878, 14, coloured, 23, yes, 5, 0, 0.404581, -14, coloured, 24, yes, 1, 0, NaN, NaN4, coloured, 24, yes, 2, 1, NaN, NaN4, coloured, 24, yes, 3, 0, 0.557757, -14, coloured, 24, yes, 4, 0, 0.628995, -14, coloured, 25, yes, 1, 1, NaN, NaN4, coloured, 25, yes, 2, 0, NaN, NaN4, coloured, 25, yes, 3, 0, 0.595332, -14, coloured, 25, yes, 4, 1, 0.693011, 14, coloured, 25, yes, 5, 0, 0.537230, -14, coloured, 26, no, 1, 0, 0.513330, -14, coloured, 26, no, 2, 1, 0.595755, 14, coloured, 26, no, 3, 1, 0.564817, 14, coloured, 26, no, 4, 1, 0.388124, 14, coloured, 26, no, 5, 0, 0.450641, -14, coloured, 27, no, 1, 1, 0.450194, 14, coloured, 27, no, 2, 1, 0.411307, 14, coloured, 27, no, 3, 0, 0.467645, -14, coloured, 27, no, 4, 1, 0.465735, 14, coloured, 27, no, 5, 0, 0.461800, -14, coloured, 28, yes, 1, 0, NaN, NaN4, coloured, 28, yes, 2, 1, NaN, NaN4, coloured, 28, yes, 3, 1, 0.414303, 14, coloured, 28, yes, 4, 0, 0.587482, -14, coloured, 29, yes, 1, 1, NaN, NaN4, coloured, 29, yes, 2, 0, NaN, NaN4, coloured, 29, yes, 3, 0, 0.559966, -14, coloured, 30, yes, 1, 1, NaN, NaN4, coloured, 30, yes, 2, 0, NaN, NaN4, coloured, 30, yes, 3, 1, 0.785538, 14, coloured, 30, yes, 4, 1, 0.562538, 15, coloured, 1, yes, 1, 1, NaN, NaN5, coloured, 1, yes, 2, 1, NaN, NaN5, coloured, 1, yes, 3, 1, 1.643440, -15, coloured, 1, yes, 4, 1, 0.733518, 15, coloured, 1, yes, 5, 0, 1.190017, -15, coloured, 2, yes, 1, 1, NaN, NaN5, coloured, 2, yes, 2, 0, NaN, NaN5, coloured, 2, yes, 3, 0, 1.747397, -15, coloured, 3, no, 1, 0, 1.302062, -15, coloured, 3, no, 2, 1, 0.743819, 15, coloured, 3, no, 3, 1, 1.001070, 15, coloured, 4, yes, 1, 0, NaN, NaN5, coloured, 4, yes, 2, 0, NaN, NaN5, coloured, 4, yes, 3, 0, 2.001912, 35, coloured, 4, yes, 4, 0, 0.980481, 15, coloured, 5, no, 1, 1, 0.944408, 15, coloured, 5, no, 2, 0, 1.272111, -15, coloured, 5, no, 3, 0, 0.622945, -15, coloured, 6, yes, 1, 1, NaN, NaN5, coloured, 6, yes, 2, 0, NaN, NaN5, coloured, 6, yes, 3, 0, 1.646664, -15, coloured, 6, yes, 4, 0, 0.828111, -15, coloured, 6, yes, 5, 0, 2.001414, 35, coloured, 7, no, 1, 0, 1.216479, -15, coloured, 7, no, 2, 0, 1.438124, 15, coloured, 7, no, 3, 0, 0.890545, -15, coloured, 7, no, 4, 1, 2.001828, 35, coloured, 7, no, 5, 0, 0.865818, -15, coloured, 8, yes, 1, 0, NaN, NaN5, coloured, 8, yes, 2, 0, NaN, NaN5, coloured, 8, yes, 3, 0, 1.607356, -15, coloured, 8, yes, 4, 1, 0.781819, -15, coloured, 8, yes, 5, 0, 2.001338, 35, coloured, 9, no, 1, 0, 1.862236, -15, coloured, 9, no, 2, 1, 0.643988, 15, coloured, 9, no, 3, 1, 0.575480, 15, coloured, 9, no, 4, 0, 1.178643, -15, coloured, 10, yes, 1, 1, NaN, NaN5, coloured, 10, yes, 2, 1, NaN, NaN5, coloured, 10, yes, 3, 1, 0.769389, -15, coloured, 10, yes, 4, 1, 0.614819, 15, coloured, 11, yes, 1, 1, NaN, NaN5, coloured, 11, yes, 2, 1, NaN, NaN5, coloured, 11, yes, 3, 1, 1.032484, 15, coloured, 11, yes, 4, 0, 1.662370, -15, coloured, 11, yes, 5, 1, 0.761612, 15, coloured, 12, no, 1, 0, 1.268397, -15, coloured, 12, no, 2, 0, 0.991196, -15, coloured, 12, no, 3, 0, 1.635343, -15, coloured, 13, no, 1, 0, 1.028538, -15, coloured, 13, no, 2, 0, 0.975887, -15, coloured, 13, no, 3, 1, 0.703623, 15, coloured, 13, no, 4, 0, 0.669904, -15, coloured, 13, no, 5, 1, 2.001672, 35, coloured, 14, no, 1, 1, 1.020593, 15, coloured, 14, no, 2, 1, 0.685805, 15, coloured, 14, no, 3, 0, 0.758989, -15, coloured, 14, no, 4, 0, 1.156867, -15, coloured, 14, no, 5, 0, 0.964309, -15, coloured, 15, no, 1, 0, 0.535865, 15, coloured, 15, no, 2, 0, 1.835144, -15, coloured, 15, no, 3, 0, 0.835102, -15, coloured, 15, no, 4, 0, 1.274836, -15, coloured, 16, no, 1, 0, 0.921651, 15, coloured, 16, no, 2, 1, 0.922760, -15, coloured, 16, no, 3, 0, 1.821548, -15, coloured, 17, yes, 1, 0, NaN, NaN5, coloured, 17, yes, 2, 1, NaN, NaN5, coloured, 17, yes, 3, 0, 1.785969, -15, coloured, 17, yes, 4, 0, 1.200095, -15, coloured, 18, no, 1, 0, 0.674040, -15, coloured, 18, no, 2, 0, 0.923225, -15, coloured, 18, no, 3, 0, 1.439516, -15, coloured, 19, no, 1, 1, 0.606188, 15, coloured, 19, no, 2, 1, 0.709117, 15, coloured, 19, no, 3, 0, 1.034808, -15, coloured, 19, no, 4, 1, 0.610267, 15, coloured, 20, no, 1, 1, 0.718109, 15, coloured, 20, no, 2, 1, 0.671174, 15, coloured, 20, no, 3, 1, 0.598833, 15, coloured, 20, no, 4, 0, 0.800300, -15, coloured, 21, no, 1, 0, 0.799956, 15, coloured, 21, no, 2, 0, 1.062066, -15, coloured, 21, no, 3, 0, 0.715382, -15, coloured, 22, yes, 1, 0, NaN, NaN5, coloured, 22, yes, 2, 0, NaN, NaN5, coloured, 22, yes, 3, 0, 1.091567, -15, coloured, 23, yes, 1, 1, NaN, NaN5, coloured, 23, yes, 2, 0, NaN, NaN5, coloured, 23, yes, 3, 0, 0.713274, -15, coloured, 23, yes, 4, 1, 0.989122, -15, coloured, 23, yes, 5, 1, 1.239583, 15, coloured, 24, yes, 1, 1, NaN, NaN5, coloured, 24, yes, 2, 1, NaN, NaN5, coloured, 24, yes, 3, 1, 1.302868, 15, coloured, 24, yes, 4, 1, 1.190548, 15, coloured, 25, yes, 1, 1, NaN, NaN5, coloured, 25, yes, 2, 0, NaN, NaN5, coloured, 25, yes, 3, 0, 2.002002, 35, coloured, 25, yes, 4, 0, 0.805114, -15, coloured, 26, no, 1, 1, 1.376047, -15, coloured, 26, no, 2, 1, 0.861926, 15, coloured, 26, no, 3, 1, 0.932573, 15, coloured, 26, no, 4, 0, 0.657401, -15, coloured, 26, no, 5, 1, 0.717930, 15, coloured, 27, no, 1, 1, 0.849810, 15, coloured, 27, no, 2, 0, 0.825480, -15, coloured, 27, no, 3, 1, 0.645571, 15, coloured, 27, no, 4, 1, 1.596105, 15, coloured, 27, no, 5, 0, 0.580799, -15, coloured, 28, yes, 1, 0, NaN, NaN5, coloured, 28, yes, 2, 0, NaN, NaN5, coloured, 28, yes, 3, 1, 1.317174, 15, coloured, 28, yes, 4, 0, 0.424373, 15, coloured, 28, yes, 5, 1, 0.662406, 15, coloured, 29, yes, 1, 1, NaN, NaN5, coloured, 29, yes, 2, 1, NaN, NaN5, coloured, 29, yes, 3, 1, 2.001546, 35, coloured, 29, yes, 4, 1, 0.869872, 15, coloured, 29, yes, 5, 0, 0.585419, -15, coloured, 30, yes, 1, 1, NaN, NaN5, coloured, 30, yes, 2, 1, NaN, NaN5, coloured, 30, yes, 3, 1, 2.001858, 35, coloured, 30, yes, 4, 1, 1.092559, 15, coloured, 30, yes, 5, 0, 0.802034, -15, coloured, 1, yes, 1, 0, NaN, NaN5, coloured, 1, yes, 2, 1, NaN, NaN5, coloured, 1, yes, 3, 1, 0.927958, 15, coloured, 2, yes, 1, 0, NaN, NaN5, coloured, 2, yes, 2, 0, NaN, NaN5, coloured, 2, yes, 3, 1, 0.712020, 15, coloured, 2, yes, 4, 0, 0.658284, -15, coloured, 2, yes, 5, 1, 0.990566, 15, coloured, 3, no, 1, 0, 0.723518, -15, coloured, 3, no, 2, 1, 0.906840, 15, coloured, 3, no, 3, 0, 1.248862, -15, coloured, 4, yes, 1, 0, NaN, NaN5, coloured, 4, yes, 2, 1, NaN, NaN5, coloured, 4, yes, 3, 1, 0.756563, 15, coloured, 4, yes, 4, 0, 1.541112, -15, coloured, 4, yes, 5, 0, 1.259138, -15, coloured, 5, no, 1, 0, 0.994878, -15, coloured, 5, no, 2, 0, 0.639178, -15, coloured, 5, no, 3, 1, 0.650826, 15, coloured, 5, no, 4, 0, 0.671215, -15, coloured, 6, yes, 1, 1, NaN, NaN5, coloured, 6, yes, 2, 1, NaN, NaN5, coloured, 6, yes, 3, 1, 0.878095, 15, coloured, 6, yes, 4, 1, 1.581694, 15, coloured, 6, yes, 5, 1, 1.011118, 15, coloured, 7, no, 1, 1, 0.658438, 15, coloured, 7, no, 2, 0, 1.230172, -15, coloured, 7, no, 3, 1, 1.046745, 15, coloured, 8, yes, 1, 0, NaN, NaN5, coloured, 8, yes, 2, 1, NaN, NaN5, coloured, 8, yes, 3, 1, 1.808037, -15, coloured, 8, yes, 4, 0, 0.785974, -15, coloured, 9, no, 1, 0, 0.843333, -15, coloured, 9, no, 2, 1, 0.921784, 15, coloured, 9, no, 3, 1, 0.592744, 15, coloured, 9, no, 4, 1, 0.380274, 15, coloured, 9, no, 5, 0, 1.074984, -15, coloured, 10, yes, 1, 1, NaN, NaN5, coloured, 10, yes, 2, 0, NaN, NaN5, coloured, 10, yes, 3, 1, 1.074795, 15, coloured, 11, yes, 1, 1, NaN, NaN5, coloured, 11, yes, 2, 1, NaN, NaN5, coloured, 11, yes, 3, 1, 1.094116, -15, coloured, 12, no, 1, 1, 0.602563, 15, coloured, 12, no, 2, 1, 0.684013, 15, coloured, 12, no, 3, 0, 0.686288, -15, coloured, 12, no, 4, 0, 0.618536, -15, coloured, 12, no, 5, 0, 0.752434, -15, coloured, 13, no, 1, 1, 0.606754, 15, coloured, 13, no, 2, 0, 0.765302, -15, coloured, 13, no, 3, 1, 0.834785, 15, coloured, 14, no, 1, 1, 1.067350, -15, coloured, 14, no, 2, 0, 0.594977, -15, coloured, 14, no, 3, 0, 2.001994, 35, coloured, 14, no, 4, 0, 0.730571, -15, coloured, 14, no, 5, 0, 1.015127, -15, coloured, 15, no, 1, 0, 0.872636, -15, coloured, 15, no, 2, 0, 0.845485, -15, coloured, 15, no, 3, 1, 0.764889, -15, coloured, 15, no, 4, 1, 0.736008, 15, coloured, 15, no, 5, 1, 0.812604, 15, coloured, 16, no, 1, 0, 1.135326, -15, coloured, 16, no, 2, 0, 0.993084, -15, coloured, 16, no, 3, 0, 0.726991, -15, coloured, 16, no, 4, 0, 0.626286, -15, coloured, 16, no, 5, 0, 0.621234, -15, coloured, 17, yes, 1, 1, NaN, NaN5, coloured, 17, yes, 2, 1, NaN, NaN5, coloured, 17, yes, 3, 0, 2.002171, 35, coloured, 17, yes, 4, 0, 0.718526, -15, coloured, 17, yes, 5, 0, 0.599048, -15, coloured, 18, no, 1, 0, 0.588364, -15, coloured, 18, no, 2, 0, 0.728034, -15, coloured, 18, no, 3, 0, 1.384822, -15, coloured, 18, no, 4, 1, 0.600962, 15, coloured, 19, no, 1, 1, 0.806945, 15, coloured, 19, no, 2, 0, 0.639520, -15, coloured, 19, no, 3, 0, 0.943890, -15, coloured, 20, no, 1, 1, 0.885912, 15, coloured, 20, no, 2, 1, 1.193984, -15, coloured, 20, no, 3, 0, 1.525414, 15, coloured, 20, no, 4, 0, 1.160499, -15, coloured, 21, no, 1, 1, 1.937589, -15, coloured, 21, no, 2, 0, 0.871769, -15, coloured, 21, no, 3, 1, 0.925608, 15, coloured, 21, no, 4, 1, 1.451831, 15, coloured, 21, no, 5, 1, 1.113058, 15, coloured, 22, yes, 1, 1, NaN, NaN5, coloured, 22, yes, 2, 1, NaN, NaN5, coloured, 22, yes, 3, 0, 1.065792, 35, coloured, 22, yes, 4, 1, 0.816886, 15, coloured, 22, yes, 5, 0, 0.625369, 35, coloured, 23, yes, 1, 0, NaN, NaN5, coloured, 23, yes, 2, 1, NaN, NaN5, coloured, 23, yes, 3, 1, 1.117257, 15, coloured, 24, yes, 1, 0, NaN, NaN5, coloured, 24, yes, 2, 0, NaN, NaN5, coloured, 24, yes, 3, 1, 0.890356, 15, coloured, 24, yes, 4, 0, 0.662495, -15, coloured, 25, yes, 1, 0, NaN, NaN5, coloured, 25, yes, 2, 1, NaN, NaN5, coloured, 25, yes, 3, 1, 0.878614, 35, coloured, 25, yes, 4, 1, 1.377410, 15, coloured, 25, yes, 5, 1, 0.831356, 15, coloured, 26, no, 1, 1, 0.818302, 15, coloured, 26, no, 2, 1, 0.551728, 15, coloured, 26, no, 3, 1, 0.484541, 15, coloured, 26, no, 4, 0, 0.696904, -15, coloured, 27, no, 1, 1, 0.633264, 15, coloured, 27, no, 2, 1, 1.529607, 15, coloured, 27, no, 3, 1, 0.824503, 15, coloured, 27, no, 4, 0, 0.525584, -15, coloured, 27, no, 5, 1, 0.746523, 15, coloured, 28, yes, 1, 1, NaN, NaN5, coloured, 28, yes, 2, 0, NaN, NaN5, coloured, 28, yes, 3, 0, 0.757299, -15, coloured, 28, yes, 4, 1, 1.187545, 15, coloured, 28, yes, 5, 1, 0.621508, 15, coloured, 29, yes, 1, 1, NaN, NaN5, coloured, 29, yes, 2, 1, NaN, NaN5, coloured, 29, yes, 3, 1, 0.942820, 15, coloured, 30, yes, 1, 0, NaN, NaN5, coloured, 30, yes, 2, 1, NaN, NaN5, coloured, 30, yes, 3, 1, 0.806501, 15, coloured, 30, yes, 4, 0, 0.667150, -15, coloured, 30, yes, 5, 0, 0.616438, -15, coloured, 1, yes, 1, 1, NaN, NaN5, coloured, 1, yes, 2, 1, NaN, NaN5, coloured, 1, yes, 3, 0, 1.608361, 15, coloured, 1, yes, 4, 0, 0.731348, -15, coloured, 2, yes, 1, 0, NaN, NaN5, coloured, 2, yes, 2, 0, NaN, NaN5, coloured, 2, yes, 3, 0, 0.597409, -15, coloured, 3, no, 1, 0, 1.467114, -15, coloured, 3, no, 2, 0, 0.882661, -15, coloured, 3, no, 3, 1, 0.891239, 15, coloured, 4, yes, 1, 0, NaN, NaN5, coloured, 4, yes, 2, 1, NaN, NaN5, coloured, 4, yes, 3, 0, 0.793646, -15, coloured, 5, no, 1, 1, 0.493020, 15, coloured, 5, no, 2, 0, 0.725151, -15, coloured, 5, no, 3, 0, 0.587054, -15, coloured, 5, no, 4, 1, 0.791676, 15, coloured, 5, no, 5, 0, 0.702473, -15, coloured, 6, yes, 1, 1, NaN, NaN5, coloured, 6, yes, 2, 0, NaN, NaN5, coloured, 6, yes, 3, 1, 0.763915, 15, coloured, 7, no, 1, 0, 0.624375, -15, coloured, 7, no, 2, 1, 0.820719, 15, coloured, 7, no, 3, 0, 0.694796, -15, coloured, 7, no, 4, 0, 0.664697, -15, coloured, 8, yes, 1, 0, NaN, NaN5, coloured, 8, yes, 2, 1, NaN, NaN5, coloured, 8, yes, 3, 0, 0.654592, -15, coloured, 9, no, 1, 1, 0.611341, 15, coloured, 9, no, 2, 1, 0.699718, 15, coloured, 9, no, 3, 1, 0.908261, 15, coloured, 9, no, 4, 1, 0.839633, 15, coloured, 9, no, 5, 0, 0.653054, -15, coloured, 10, yes, 1, 0, NaN, NaN5, coloured, 10, yes, 2, 1, NaN, NaN5, coloured, 10, yes, 3, 0, 1.699504, -15, coloured, 10, yes, 4, 1, 0.791716, 15, coloured, 11, yes, 1, 0, NaN, NaN5, coloured, 11, yes, 2, 0, NaN, NaN5, coloured, 11, yes, 3, 1, 0.764801, 15, coloured, 11, yes, 4, 0, 0.620737, -15, coloured, 11, yes, 5, 0, 0.665795, -15, coloured, 12, no, 1, 0, 0.616394, -15, coloured, 12, no, 2, 0, 0.763472, -15, coloured, 12, no, 3, 1, 0.608919, 15, coloured, 12, no, 4, 0, 0.907814, -15, coloured, 13, no, 1, 0, 2.001821, 35, coloured, 13, no, 2, 0, 0.641724, -15, coloured, 13, no, 3, 0, 0.798354, -15, coloured, 13, no, 4, 1, 0.682878, 15, coloured, 13, no, 5, 1, 0.730280, 15, coloured, 14, no, 1, 1, 0.903742, 15, coloured, 14, no, 2, 0, 0.665468, -15, coloured, 14, no, 3, 0, 0.589059, -15, coloured, 15, no, 1, 1, 0.716028, 15, coloured, 15, no, 2, 1, 0.611532, 15, coloured, 15, no, 3, 0, 0.608408, -15, coloured, 16, no, 1, 1, 1.191808, 15, coloured, 16, no, 2, 0, 1.208958, -15, coloured, 16, no, 3, 1, 0.625590, 15, coloured, 16, no, 4, 1, 0.656825, 15, coloured, 16, no, 5, 0, 1.300500, -15, coloured, 17, yes, 1, 0, NaN, NaN5, coloured, 17, yes, 2, 1, NaN, NaN5, coloured, 17, yes, 3, 1, 1.413886, -15, coloured, 17, yes, 4, 0, 0.955889, -15, coloured, 17, yes, 5, 0, 1.096244, -15, coloured, 18, no, 1, 0, 0.933574, -15, coloured, 18, no, 2, 0, 0.995329, -15, coloured, 18, no, 3, 0, 0.858585, -15, coloured, 19, no, 1, 1, 0.916145, 15, coloured, 19, no, 2, 1, 1.112234, 15, coloured, 19, no, 3, 1, 1.118886, 15, coloured, 20, no, 1, 1, 0.896449, 15, coloured, 20, no, 2, 1, 0.603109, 15, coloured, 20, no, 3, 1, 0.543790, 15, coloured, 20, no, 4, 1, 0.585194, 15, coloured, 20, no, 5, 1, 0.556784, 15, coloured, 21, no, 1, 1, 0.612750, 15, coloured, 21, no, 2, 1, 0.563919, 15, coloured, 21, no, 3, 0, 0.935971, -15, coloured, 22, yes, 1, 1, NaN, NaN5, coloured, 22, yes, 2, 1, NaN, NaN5, coloured, 22, yes, 3, 0, 1.744040, -15, coloured, 23, yes, 1, 0, NaN, NaN5, coloured, 23, yes, 2, 0, NaN, NaN5, coloured, 23, yes, 3, 0, 0.973206, -15, coloured, 23, yes, 4, 0, 0.589097, -15, coloured, 24, yes, 1, 0, NaN, NaN5, coloured, 24, yes, 2, 1, NaN, NaN5, coloured, 24, yes, 3, 0, 1.139891, -15, coloured, 24, yes, 4, 1, 0.775838, 15, coloured, 25, yes, 1, 0, NaN, NaN5, coloured, 25, yes, 2, 0, NaN, NaN5, coloured, 25, yes, 3, 1, 1.179751, 15, coloured, 25, yes, 4, 0, 1.530158, -15, coloured, 25, yes, 5, 0, 0.621363, -15, coloured, 26, no, 1, 0, 0.569905, -15, coloured, 26, no, 2, 0, 0.656257, -15, coloured, 26, no, 3, 1, 0.647417, -15, coloured, 26, no, 4, 1, 0.557917, 15, coloured, 26, no, 5, 1, 0.829694, 15, coloured, 27, no, 1, 1, 0.737984, 15, coloured, 27, no, 2, 1, 0.943571, 15, coloured, 27, no, 3, 0, 0.598751, -15, coloured, 28, yes, 1, 0, NaN, NaN5, coloured, 28, yes, 2, 0, NaN, NaN5, coloured, 28, yes, 3, 0, 1.333024, -15, coloured, 28, yes, 4, 0, 1.395721, -15, coloured, 29, yes, 1, 1, NaN, NaN5, coloured, 29, yes, 2, 0, NaN, NaN5, coloured, 29, yes, 3, 0, 1.530879, 15, coloured, 29, yes, 4, 0, 0.620078, -15, coloured, 29, yes, 5, 1, 0.525215, 15, coloured, 30, yes, 1, 0, NaN, NaN5, coloured, 30, yes, 2, 1, NaN, NaN5, coloured, 30, yes, 3, 1, 0.602847, 15, coloured, 30, yes, 4, 1, 0.648295, 15, coloured, 1, yes, 1, 1, NaN, NaN5, coloured, 1, yes, 2, 1, NaN, NaN5, coloured, 1, yes, 3, 0, 0.676906, 35, coloured, 1, yes, 4, 0, 1.124092, 35, coloured, 1, yes, 5, 1, 0.505925, 15, coloured, 2, yes, 1, 0, NaN, NaN5, coloured, 2, yes, 2, 1, NaN, NaN5, coloured, 2, yes, 3, 0, 1.345862, 35, coloured, 2, yes, 4, 0, 1.281684, 35, coloured, 3, no, 1, 0, 1.902083, -15, coloured, 3, no, 2, 1, 1.054293, 15, coloured, 3, no, 3, 0, 0.996124, -15, coloured, 3, no, 4, 1, 0.735777, 15, coloured, 4, yes, 1, 0, NaN, NaN5, coloured, 4, yes, 2, 1, NaN, NaN5, coloured, 4, yes, 3, 1, 0.783295, 15, coloured, 4, yes, 4, 1, 0.708455, 15, coloured, 4, yes, 5, 1, 0.584327, 15, coloured, 5, no, 1, 0, 0.642023, -15, coloured, 5, no, 2, 0, 1.099739, -15, coloured, 5, no, 3, 0, 0.580183, -15, coloured, 5, no, 4, 0, 0.700623, -15, coloured, 5, no, 5, 0, 0.974491, -15, coloured, 6, yes, 1, 1, NaN, NaN5, coloured, 6, yes, 2, 0, NaN, NaN5, coloured, 6, yes, 3, 0, 1.483915, -15, coloured, 6, yes, 4, 0, 0.626870, -15, coloured, 6, yes, 5, 0, 1.124455, -15, coloured, 7, no, 1, 1, 1.210956, 15, coloured, 7, no, 2, 1, 0.986207, 15, coloured, 7, no, 3, 1, 0.805648, 15, coloured, 7, no, 4, 0, 1.198876, -15, coloured, 7, no, 5, 0, 1.042348, 15, coloured, 8, yes, 1, 1, NaN, NaN5, coloured, 8, yes, 2, 0, NaN, NaN5, coloured, 8, yes, 3, 1, 2.001672, 35, coloured, 8, yes, 4, 1, 0.750978, 15, coloured, 8, yes, 5, 1, 1.795936, 15, coloured, 9, no, 1, 0, 0.804690, -15, coloured, 9, no, 2, 0, 1.203217, -15, coloured, 9, no, 3, 1, 0.622250, 15, coloured, 9, no, 4, 0, 1.323766, -15, coloured, 9, no, 5, 0, 0.902170, -15, coloured, 10, yes, 1, 1, NaN, NaN5, coloured, 10, yes, 2, 0, NaN, NaN5, coloured, 10, yes, 3, 0, 2.002036, 35, coloured, 11, yes, 1, 0, NaN, NaN5, coloured, 11, yes, 2, 1, NaN, NaN5, coloured, 11, yes, 3, 0, 0.914507, -15, coloured, 12, no, 1, 1, 0.749043, 15, coloured, 12, no, 2, 0, 0.576433, -15, coloured, 12, no, 3, 0, 0.790098, -15, coloured, 12, no, 4, 1, 0.643125, 15, coloured, 13, no, 1, 0, 0.568631, -15, coloured, 13, no, 2, 1, 0.613683, 15, coloured, 13, no, 3, 0, 0.825095, -15, coloured, 13, no, 4, 0, 0.682403, -15, coloured, 13, no, 5, 0, 0.781521, -15, coloured, 14, no, 1, 0, 0.995709, -15, coloured, 14, no, 2, 1, 0.674266, 15, coloured, 14, no, 3, 1, 0.798768, 15, coloured, 14, no, 4, 1, 0.855485, 15, coloured, 14, no, 5, 1, 0.755067, 15, coloured, 15, no, 1, 1, 1.269630, 15, coloured, 15, no, 2, 0, 0.863000, -15, coloured, 15, no, 3, 1, 1.006255, 15, coloured, 16, no, 1, 0, 0.569606, -15, coloured, 16, no, 2, 1, 0.635457, 15, coloured, 16, no, 3, 1, 0.658992, 15, coloured, 16, no, 4, 1, 0.442934, 15, coloured, 16, no, 5, 0, 0.577985, -15, coloured, 17, yes, 1, 1, NaN, NaN5, coloured, 17, yes, 2, 1, NaN, NaN5, coloured, 17, yes, 3, 0, 0.728497, -15, coloured, 17, yes, 4, 1, 0.774704, 15, coloured, 18, no, 1, 1, 0.658502, 15, coloured, 18, no, 2, 1, 0.523579, 15, coloured, 18, no, 3, 0, 0.702249, -15, coloured, 18, no, 4, 0, 0.824081, -15, coloured, 19, no, 1, 0, 1.115032, -15, coloured, 19, no, 2, 0, 0.899753, 15, coloured, 19, no, 3, 0, 0.650664, -15, coloured, 19, no, 4, 0, 0.883758, -15, coloured, 19, no, 5, 0, 0.907793, -15, coloured, 20, no, 1, 1, 1.152244, 15, coloured, 20, no, 2, 1, 0.958055, 15, coloured, 20, no, 3, 0, 1.269799, -15, coloured, 21, no, 1, 0, 0.941098, -15, coloured, 21, no, 2, 1, 0.832675, 15, coloured, 21, no, 3, 1, 0.672435, 15, coloured, 21, no, 4, 0, 0.864944, -15, coloured, 22, yes, 1, 0, NaN, NaN5, coloured, 22, yes, 2, 1, NaN, NaN5, coloured, 22, yes, 3, 1, 1.377118, 15, coloured, 22, yes, 4, 0, 0.785763, -15, coloured, 23, yes, 1, 1, NaN, NaN5, coloured, 23, yes, 2, 0, NaN, NaN5, coloured, 23, yes, 3, 1, 1.014410, 15, coloured, 23, yes, 4, 1, 0.818502, 15, coloured, 23, yes, 5, 0, 1.124846, -15, coloured, 24, yes, 1, 0, NaN, NaN5, coloured, 24, yes, 2, 1, NaN, NaN5, coloured, 24, yes, 3, 0, 1.136031, -15, coloured, 24, yes, 4, 0, 1.152167, -15, coloured, 25, yes, 1, 1, NaN, NaN5, coloured, 25, yes, 2, 0, NaN, NaN5, coloured, 25, yes, 3, 0, 1.524203, -15, coloured, 25, yes, 4, 1, 0.593605, 15, coloured, 25, yes, 5, 0, 0.987182, -15, coloured, 26, no, 1, 0, 0.775666, -15, coloured, 26, no, 2, 1, 0.899673, 15, coloured, 26, no, 3, 1, 0.682941, 15, coloured, 26, no, 4, 1, 0.553236, 15, coloured, 26, no, 5, 0, 0.922376, -15, coloured, 27, no, 1, 1, 0.844622, 15, coloured, 27, no, 2, 1, 0.556001, 15, coloured, 27, no, 3, 0, 0.535986, -15, coloured, 27, no, 4, 1, 0.643626, 15, coloured, 27, no, 5, 0, 0.769998, -15, coloured, 28, yes, 1, 0, NaN, NaN5, coloured, 28, yes, 2, 1, NaN, NaN5, coloured, 28, yes, 3, 1, 0.764765, 15, coloured, 28, yes, 4, 0, 0.569868, -15, coloured, 29, yes, 1, 1, NaN, NaN5, coloured, 29, yes, 2, 0, NaN, NaN5, coloured, 29, yes, 3, 0, 1.310507, -15, coloured, 30, yes, 1, 1, NaN, NaN5, coloured, 30, yes, 2, 0, NaN, NaN5, coloured, 30, yes, 3, 1, 0.904029, 15, coloured, 30, yes, 4, 1, 0.551280, 16, coloured, 1, yes, 1, 1, NaN, NaN6, coloured, 1, yes, 2, 1, NaN, NaN6, coloured, 1, yes, 3, 1, 0.726554, 16, coloured, 1, yes, 4, 1, 0.487565, 16, coloured, 1, yes, 5, 0, 0.361879, -16, coloured, 2, yes, 1, 1, NaN, NaN6, coloured, 2, yes, 2, 0, NaN, NaN6, coloured, 2, yes, 3, 0, 0.640291, -16, coloured, 3, no, 1, 0, 0.880756, -16, coloured, 3, no, 2, 1, 0.670995, 16, coloured, 3, no, 3, 1, 0.591141, 16, coloured, 4, yes, 1, 0, NaN, NaN6, coloured, 4, yes, 2, 0, NaN, NaN6, coloured, 4, yes, 3, 0, 0.662919, -16, coloured, 4, yes, 4, 0, 0.575845, -16, coloured, 5, no, 1, 1, 0.584042, 16, coloured, 5, no, 2, 0, 0.430344, -16, coloured, 5, no, 3, 0, 0.747092, -16, coloured, 6, yes, 1, 1, NaN, NaN6, coloured, 6, yes, 2, 0, NaN, NaN6, coloured, 6, yes, 3, 0, 0.814566, -16, coloured, 6, yes, 4, 0, 1.269238, -16, coloured, 6, yes, 5, 0, 0.906388, -16, coloured, 7, no, 1, 0, 0.535468, -16, coloured, 7, no, 2, 0, 0.597692, -16, coloured, 7, no, 3, 0, 0.584068, -16, coloured, 7, no, 4, 1, 0.836438, 16, coloured, 7, no, 5, 0, 0.487421, -16, coloured, 8, yes, 1, 0, NaN, NaN6, coloured, 8, yes, 2, 0, NaN, NaN6, coloured, 8, yes, 3, 0, 0.768878, -16, coloured, 8, yes, 4, 1, 0.508876, -16, coloured, 8, yes, 5, 0, 0.826192, -16, coloured, 9, no, 1, 0, 1.153144, -16, coloured, 9, no, 2, 1, 0.754331, 16, coloured, 9, no, 3, 1, 0.598625, 16, coloured, 9, no, 4, 0, 0.712019, -16, coloured, 10, yes, 1, 1, NaN, NaN6, coloured, 10, yes, 2, 1, NaN, NaN6, coloured, 10, yes, 3, 1, 0.731141, 16, coloured, 10, yes, 4, 1, 0.579183, 16, coloured, 11, yes, 1, 1, NaN, NaN6, coloured, 11, yes, 2, 1, NaN, NaN6, coloured, 11, yes, 3, 1, 0.815254, 16, coloured, 11, yes, 4, 0, 0.772284, -16, coloured, 11, yes, 5, 1, 0.664958, 16, coloured, 12, no, 1, 0, 0.735558, -16, coloured, 12, no, 2, 0, 0.823072, -16, coloured, 12, no, 3, 0, 0.591489, -16, coloured, 13, no, 1, 0, 0.768782, -16, coloured, 13, no, 2, 0, 0.669590, -16, coloured, 13, no, 3, 1, 0.537558, 16, coloured, 13, no, 4, 0, 0.524504, -16, coloured, 13, no, 5, 1, 0.461624, 16, coloured, 14, no, 1, 1, 0.507374, 16, coloured, 14, no, 2, 1, 0.560214, 16, coloured, 14, no, 3, 0, 0.682111, -16, coloured, 14, no, 4, 0, 0.498326, -16, coloured, 14, no, 5, 0, 0.613330, -16, coloured, 15, no, 1, 0, 0.598709, -16, coloured, 15, no, 2, 0, 0.439551, -16, coloured, 15, no, 3, 0, 0.616115, -16, coloured, 15, no, 4, 0, 0.521737, -16, coloured, 16, no, 1, 0, 0.611600, -16, coloured, 16, no, 2, 1, 0.566893, 16, coloured, 16, no, 3, 0, 0.511971, -16, coloured, 17, yes, 1, 0, NaN, NaN6, coloured, 17, yes, 2, 1, NaN, NaN6, coloured, 17, yes, 3, 0, 0.514989, -16, coloured, 17, yes, 4, 0, 0.530401, -16, coloured, 18, no, 1, 0, 0.565247, -16, coloured, 18, no, 2, 0, 0.718373, -16, coloured, 18, no, 3, 0, 1.007243, 16, coloured, 19, no, 1, 1, 0.594303, 16, coloured, 19, no, 2, 1, 0.558631, 16, coloured, 19, no, 3, 0, 0.489543, -16, coloured, 19, no, 4, 1, 0.592611, 16, coloured, 20, no, 1, 1, 0.723019, 16, coloured, 20, no, 2, 1, 0.728485, 16, coloured, 20, no, 3, 1, 0.538166, 16, coloured, 20, no, 4, 0, 0.469448, -16, coloured, 21, no, 1, 0, 0.483784, -16, coloured, 21, no, 2, 0, 1.118863, -16, coloured, 21, no, 3, 0, 0.520533, -16, coloured, 22, yes, 1, 0, NaN, NaN6, coloured, 22, yes, 2, 0, NaN, NaN6, coloured, 22, yes, 3, 0, 0.548612, -16, coloured, 23, yes, 1, 1, NaN, NaN6, coloured, 23, yes, 2, 0, NaN, NaN6, coloured, 23, yes, 3, 0, 1.190062, 16, coloured, 23, yes, 4, 1, 0.531831, 16, coloured, 23, yes, 5, 1, 0.433221, 16, coloured, 24, yes, 1, 1, NaN, NaN6, coloured, 24, yes, 2, 1, NaN, NaN6, coloured, 24, yes, 3, 1, 0.640120, 16, coloured, 24, yes, 4, 1, 0.525465, 16, coloured, 25, yes, 1, 1, NaN, NaN6, coloured, 25, yes, 2, 0, NaN, NaN6, coloured, 25, yes, 3, 0, 0.398556, -16, coloured, 25, yes, 4, 0, 1.112662, 16, coloured, 26, no, 1, 1, 0.454306, -16, coloured, 26, no, 2, 1, 0.583550, 16, coloured, 26, no, 3, 1, 0.453857, 16, coloured, 26, no, 4, 0, 0.447256, -16, coloured, 26, no, 5, 1, 0.383338, 16, coloured, 27, no, 1, 1, 0.471307, 16, coloured, 27, no, 2, 0, 0.542773, -16, coloured, 27, no, 3, 1, 0.505704, 16, coloured, 27, no, 4, 1, 0.491457, 16, coloured, 27, no, 5, 0, 0.520430, -16, coloured, 28, yes, 1, 0, NaN, NaN6, coloured, 28, yes, 2, 0, NaN, NaN6, coloured, 28, yes, 3, 1, 0.504073, -16, coloured, 28, yes, 4, 0, 0.723293, -16, coloured, 28, yes, 5, 1, 1.292517, 16, coloured, 29, yes, 1, 1, NaN, NaN6, coloured, 29, yes, 2, 1, NaN, NaN6, coloured, 29, yes, 3, 1, 0.729962, 16, coloured, 29, yes, 4, 1, 0.427857, 16, coloured, 29, yes, 5, 0, 0.528235, -16, coloured, 30, yes, 1, 1, NaN, NaN6, coloured, 30, yes, 2, 1, NaN, NaN6, coloured, 30, yes, 3, 1, 0.607994, 16, coloured, 30, yes, 4, 1, 0.450490, 16, coloured, 30, yes, 5, 0, 0.594498, -16, coloured, 1, yes, 1, 0, NaN, NaN6, coloured, 1, yes, 2, 1, NaN, NaN6, coloured, 1, yes, 3, 1, 1.051514, 16, coloured, 2, yes, 1, 0, NaN, NaN6, coloured, 2, yes, 2, 0, NaN, NaN6, coloured, 2, yes, 3, 1, 0.665362, 16, coloured, 2, yes, 4, 0, 0.768761, -16, coloured, 2, yes, 5, 1, 0.555422, 16, coloured, 3, no, 1, 0, 0.579284, -16, coloured, 3, no, 2, 1, 0.514258, 16, coloured, 3, no, 3, 0, 0.504335, -16, coloured, 4, yes, 1, 0, NaN, NaN6, coloured, 4, yes, 2, 1, NaN, NaN6, coloured, 4, yes, 3, 1, 0.514065, 16, coloured, 4, yes, 4, 0, 0.793489, -16, coloured, 4, yes, 5, 0, 0.741810, -16, coloured, 5, no, 1, 0, 0.531841, -16, coloured, 5, no, 2, 0, 0.453317, -16, coloured, 5, no, 3, 1, 0.527899, 16, coloured, 5, no, 4, 0, 0.453425, -16, coloured, 6, yes, 1, 1, NaN, NaN6, coloured, 6, yes, 2, 1, NaN, NaN6, coloured, 6, yes, 3, 1, 0.470183, 16, coloured, 6, yes, 4, 1, 0.610789, 16, coloured, 6, yes, 5, 1, 0.774396, 16, coloured, 7, no, 1, 1, 0.713632, 16, coloured, 7, no, 2, 0, 0.427463, -16, coloured, 7, no, 3, 1, 0.436210, -16, coloured, 8, yes, 1, 0, NaN, NaN6, coloured, 8, yes, 2, 1, NaN, NaN6, coloured, 8, yes, 3, 1, 0.590979, 16, coloured, 8, yes, 4, 0, 0.506858, -16, coloured, 9, no, 1, 0, 0.492721, -16, coloured, 9, no, 2, 1, 0.566627, 16, coloured, 9, no, 3, 1, 0.447002, 16, coloured, 9, no, 4, 1, 0.334714, 16, coloured, 9, no, 5, 0, 0.484016, -16, coloured, 10, yes, 1, 1, NaN, NaN6, coloured, 10, yes, 2, 0, NaN, NaN6, coloured, 10, yes, 3, 1, 0.604854, 16, coloured, 11, yes, 1, 1, NaN, NaN6, coloured, 11, yes, 2, 1, NaN, NaN6, coloured, 11, yes, 3, 1, 0.519364, 16, coloured, 12, no, 1, 1, 0.517344, 16, coloured, 12, no, 2, 1, 0.359437, 16, coloured, 12, no, 3, 0, 0.440405, -16, coloured, 12, no, 4, 0, 1.177724, 16, coloured, 12, no, 5, 0, 0.403032, -16, coloured, 13, no, 1, 1, 0.430406, 16, coloured, 13, no, 2, 0, 0.496960, -16, coloured, 13, no, 3, 1, 0.569724, 16, coloured, 14, no, 1, 1, 0.596681, 16, coloured, 14, no, 2, 0, 0.456641, -16, coloured, 14, no, 3, 0, 0.543692, -16, coloured, 14, no, 4, 0, 0.547600, -16, coloured, 14, no, 5, 0, 0.603033, -16, coloured, 15, no, 1, 0, 0.632700, -16, coloured, 15, no, 2, 0, 0.439841, -16, coloured, 15, no, 3, 1, 0.604380, 16, coloured, 15, no, 4, 1, 1.259659, 16, coloured, 15, no, 5, 1, 0.397862, 16, coloured, 16, no, 1, 0, 0.354341, -16, coloured, 16, no, 2, 0, 0.573764, -16, coloured, 16, no, 3, 0, 0.553494, -16, coloured, 16, no, 4, 0, 0.458067, -16, coloured, 16, no, 5, 0, 0.612488, -16, coloured, 17, yes, 1, 1, NaN, NaN6, coloured, 17, yes, 2, 1, NaN, NaN6, coloured, 17, yes, 3, 0, 0.908141, -16, coloured, 17, yes, 4, 0, 1.015041, -16, coloured, 17, yes, 5, 0, 0.385747, -16, coloured, 18, no, 1, 0, 0.513085, -16, coloured, 18, no, 2, 0, 0.670599, -16, coloured, 18, no, 3, 0, 0.495225, -16, coloured, 18, no, 4, 1, 0.597056, 16, coloured, 19, no, 1, 1, 0.546077, 16, coloured, 19, no, 2, 0, 0.412626, -16, coloured, 19, no, 3, 0, 0.461391, -16, coloured, 20, no, 1, 1, 0.502155, 16, coloured, 20, no, 2, 1, 0.367738, 16, coloured, 20, no, 3, 0, 0.490231, -16, coloured, 20, no, 4, 0, 0.384495, -16, coloured, 21, no, 1, 1, 0.524553, 16, coloured, 21, no, 2, 0, 0.664816, -16, coloured, 21, no, 3, 1, 0.463450, 16, coloured, 21, no, 4, 1, 0.454216, 16, coloured, 21, no, 5, 1, 0.341865, 16, coloured, 22, yes, 1, 1, NaN, NaN6, coloured, 22, yes, 2, 1, NaN, NaN6, coloured, 22, yes, 3, 0, 1.196675, 16, coloured, 22, yes, 4, 1, 0.646229, 16, coloured, 22, yes, 5, 0, 0.495115, -16, coloured, 23, yes, 1, 0, NaN, NaN6, coloured, 23, yes, 2, 1, NaN, NaN6, coloured, 23, yes, 3, 1, 0.482011, 16, coloured, 24, yes, 1, 0, NaN, NaN6, coloured, 24, yes, 2, 0, NaN, NaN6, coloured, 24, yes, 3, 1, 0.424232, 16, coloured, 24, yes, 4, 0, 0.436544, -16, coloured, 25, yes, 1, 0, NaN, NaN6, coloured, 25, yes, 2, 1, NaN, NaN6, coloured, 25, yes, 3, 1, 0.428242, 16, coloured, 25, yes, 4, 1, 0.553927, 16, coloured, 25, yes, 5, 1, 0.400168, 16, coloured, 26, no, 1, 1, 0.604172, 16, coloured, 26, no, 2, 1, 0.364411, 16, coloured, 26, no, 3, 1, 0.306516, 16, coloured, 26, no, 4, 0, 0.497779, -16, coloured, 27, no, 1, 1, 0.505951, -16, coloured, 27, no, 2, 1, 1.566604, -16, coloured, 27, no, 3, 1, 0.958881, 16, coloured, 27, no, 4, 0, 0.647243, -16, coloured, 27, no, 5, 1, 0.503873, 16, coloured, 28, yes, 1, 1, NaN, NaN6, coloured, 28, yes, 2, 0, NaN, NaN6, coloured, 28, yes, 3, 0, 0.412661, -16, coloured, 28, yes, 4, 1, 0.423579, 16, coloured, 28, yes, 5, 1, 0.546419, 16, coloured, 29, yes, 1, 1, NaN, NaN6, coloured, 29, yes, 2, 1, NaN, NaN6, coloured, 29, yes, 3, 1, 0.385103, 16, coloured, 30, yes, 1, 0, NaN, NaN6, coloured, 30, yes, 2, 1, NaN, NaN6, coloured, 30, yes, 3, 1, 0.556897, 16, coloured, 30, yes, 4, 0, 0.753954, -16, coloured, 30, yes, 5, 0, 0.466930, -16, coloured, 1, yes, 1, 1, NaN, NaN6, coloured, 1, yes, 2, 1, NaN, NaN6, coloured, 1, yes, 3, 0, 0.601764, -16, coloured, 1, yes, 4, 0, 0.495280, 16, coloured, 2, yes, 1, 0, NaN, NaN6, coloured, 2, yes, 2, 0, NaN, NaN6, coloured, 2, yes, 3, 0, 0.408994, -16, coloured, 3, no, 1, 0, 0.539400, -16, coloured, 3, no, 2, 0, 0.426814, -16, coloured, 3, no, 3, 1, 0.532816, 16, coloured, 4, yes, 1, 0, NaN, NaN6, coloured, 4, yes, 2, 1, NaN, NaN6, coloured, 4, yes, 3, 0, 0.474724, -16, coloured, 5, no, 1, 1, 0.498742, 16, coloured, 5, no, 2, 0, 0.426497, -16, coloured, 5, no, 3, 0, 0.420273, -16, coloured, 5, no, 4, 1, 0.434646, 16, coloured, 5, no, 5, 0, 0.466864, -16, coloured, 6, yes, 1, 1, NaN, NaN6, coloured, 6, yes, 2, 0, NaN, NaN6, coloured, 6, yes, 3, 1, 0.543031, 16, coloured, 7, no, 1, 0, 0.517772, -16, coloured, 7, no, 2, 1, 0.481892, 16, coloured, 7, no, 3, 0, 0.470334, -16, coloured, 7, no, 4, 0, 0.450740, -16, coloured, 8, yes, 1, 0, NaN, NaN6, coloured, 8, yes, 2, 1, NaN, NaN6, coloured, 8, yes, 3, 0, 0.846483, -16, coloured, 9, no, 1, 1, 0.493421, 16, coloured, 9, no, 2, 1, 0.522339, 16, coloured, 9, no, 3, 1, 0.552504, 16, coloured, 9, no, 4, 1, 0.488249, 16, coloured, 9, no, 5, 0, 0.614579, -16, coloured, 10, yes, 1, 0, NaN, NaN6, coloured, 10, yes, 2, 1, NaN, NaN6, coloured, 10, yes, 3, 0, 0.496273, -16, coloured, 10, yes, 4, 1, 0.650506, 16, coloured, 11, yes, 1, 0, NaN, NaN6, coloured, 11, yes, 2, 0, NaN, NaN6, coloured, 11, yes, 3, 1, 0.980760, 16, coloured, 11, yes, 4, 0, 0.484122, -16, coloured, 11, yes, 5, 0, 0.593452, -16, coloured, 12, no, 1, 0, 1.152824, -16, coloured, 12, no, 2, 0, 0.484184, -16, coloured, 12, no, 3, 1, 0.452196, 16, coloured, 12, no, 4, 0, 0.508401, -16, coloured, 13, no, 1, 0, 0.392635, -16, coloured, 13, no, 2, 0, 0.417429, -16, coloured, 13, no, 3, 0, 0.426883, -16, coloured, 13, no, 4, 1, 0.496059, 16, coloured, 13, no, 5, 1, 0.585062, 16, coloured, 14, no, 1, 1, 0.462412, 16, coloured, 14, no, 2, 0, 0.445846, -16, coloured, 14, no, 3, 0, 0.471893, -16, coloured, 15, no, 1, 1, 0.488158, 16, coloured, 15, no, 2, 1, 0.283996, -16, coloured, 15, no, 3, 0, 0.454988, -16, coloured, 16, no, 1, 1, 0.790958, 16, coloured, 16, no, 2, 0, 0.892845, 16, coloured, 16, no, 3, 1, 0.449611, 16, coloured, 16, no, 4, 1, 0.410327, 16, coloured, 16, no, 5, 0, 0.854202, -16, coloured, 17, yes, 1, 0, NaN, NaN6, coloured, 17, yes, 2, 1, NaN, NaN6, coloured, 17, yes, 3, 1, 1.898784, 16, coloured, 17, yes, 4, 0, 0.458974, -16, coloured, 17, yes, 5, 0, 0.790284, -16, coloured, 18, no, 1, 0, 0.641364, -16, coloured, 18, no, 2, 0, 0.599872, -16, coloured, 18, no, 3, 0, 0.498071, -16, coloured, 19, no, 1, 1, 0.611667, 16, coloured, 19, no, 2, 1, 0.691887, 16, coloured, 19, no, 3, 1, 0.582633, 16, coloured, 20, no, 1, 1, 0.618136, 16, coloured, 20, no, 2, 1, 0.456782, 16, coloured, 20, no, 3, 1, 0.606254, 16, coloured, 20, no, 4, 1, 0.634006, 16, coloured, 20, no, 5, 1, 0.481160, 16, coloured, 21, no, 1, 1, 0.630482, 16, coloured, 21, no, 2, 1, 0.399051, 16, coloured, 21, no, 3, 0, 0.774170, -16, coloured, 22, yes, 1, 1, NaN, NaN6, coloured, 22, yes, 2, 1, NaN, NaN6, coloured, 22, yes, 3, 0, 0.484986, -16, coloured, 23, yes, 1, 0, NaN, NaN6, coloured, 23, yes, 2, 0, NaN, NaN6, coloured, 23, yes, 3, 0, 0.413668, -16, coloured, 23, yes, 4, 0, 0.620921, -16, coloured, 24, yes, 1, 0, NaN, NaN6, coloured, 24, yes, 2, 1, NaN, NaN6, coloured, 24, yes, 3, 0, 0.708116, -16, coloured, 24, yes, 4, 1, 0.574495, 16, coloured, 25, yes, 1, 0, NaN, NaN6, coloured, 25, yes, 2, 0, NaN, NaN6, coloured, 25, yes, 3, 1, 0.452921, 16, coloured, 25, yes, 4, 0, 0.631639, -16, coloured, 25, yes, 5, 0, 0.431398, -16, coloured, 26, no, 1, 0, 0.528861, -16, coloured, 26, no, 2, 0, 0.461996, -16, coloured, 26, no, 3, 1, 0.368043, 16, coloured, 26, no, 4, 1, 0.327731, 16, coloured, 26, no, 5, 1, 0.401381, 16, coloured, 27, no, 1, 1, 0.364927, 16, coloured, 27, no, 2, 1, 0.927708, 16, coloured, 27, no, 3, 0, 0.714202, -16, coloured, 28, yes, 1, 0, NaN, NaN6, coloured, 28, yes, 2, 0, NaN, NaN6, coloured, 28, yes, 3, 0, 0.529132, -16, coloured, 28, yes, 4, 0, 0.381725, -16, coloured, 29, yes, 1, 1, NaN, NaN6, coloured, 29, yes, 2, 0, NaN, NaN6, coloured, 29, yes, 3, 0, 0.544140, -16, coloured, 29, yes, 4, 0, 0.429074, -16, coloured, 29, yes, 5, 1, 0.573161, 16, coloured, 30, yes, 1, 0, NaN, NaN6, coloured, 30, yes, 2, 1, NaN, NaN6, coloured, 30, yes, 3, 1, 0.574514, 16, coloured, 30, yes, 4, 1, 0.478180, 16, coloured, 1, yes, 1, 1, NaN, NaN6, coloured, 1, yes, 2, 1, NaN, NaN6, coloured, 1, yes, 3, 0, 1.050736, 16, coloured, 1, yes, 4, 0, 0.492135, -16, coloured, 1, yes, 5, 1, 0.408238, 16, coloured, 2, yes, 1, 0, NaN, NaN6, coloured, 2, yes, 2, 1, NaN, NaN6, coloured, 2, yes, 3, 0, 0.395347, -16, coloured, 2, yes, 4, 0, 0.525226, -16, coloured, 3, no, 1, 0, 0.721337, -16, coloured, 3, no, 2, 1, 0.274183, 16, coloured, 3, no, 3, 0, 0.327088, -16, coloured, 3, no, 4, 1, 0.602730, -16, coloured, 4, yes, 1, 0, NaN, NaN6, coloured, 4, yes, 2, 1, NaN, NaN6, coloured, 4, yes, 3, 1, 0.421964, 16, coloured, 4, yes, 4, 1, 0.387363, 16, coloured, 4, yes, 5, 1, 0.353361, 16, coloured, 5, no, 1, 0, 0.416915, -16, coloured, 5, no, 2, 0, 0.766739, -16, coloured, 5, no, 3, 0, 0.572749, -16, coloured, 5, no, 4, 0, 0.404990, -16, coloured, 5, no, 5, 0, 0.499749, -16, coloured, 6, yes, 1, 1, NaN, NaN6, coloured, 6, yes, 2, 0, NaN, NaN6, coloured, 6, yes, 3, 0, 0.738903, -16, coloured, 6, yes, 4, 0, 0.579035, -16, coloured, 6, yes, 5, 0, 0.562388, -16, coloured, 7, no, 1, 1, 0.556755, 16, coloured, 7, no, 2, 1, 0.530656, 16, coloured, 7, no, 3, 1, 0.463443, 16, coloured, 7, no, 4, 0, 0.427170, -16, coloured, 7, no, 5, 0, 0.333454, -16, coloured, 8, yes, 1, 1, NaN, NaN6, coloured, 8, yes, 2, 0, NaN, NaN6, coloured, 8, yes, 3, 1, 0.451545, 16, coloured, 8, yes, 4, 1, 0.405296, 16, coloured, 8, yes, 5, 1, 0.396055, 16, coloured, 9, no, 1, 0, 0.515710, -16, coloured, 9, no, 2, 0, 0.418470, -16, coloured, 9, no, 3, 1, 0.579726, 16, coloured, 9, no, 4, 0, 0.725681, -16, coloured, 9, no, 5, 0, 0.337649, -16, coloured, 10, yes, 1, 1, NaN, NaN6, coloured, 10, yes, 2, 0, NaN, NaN6, coloured, 10, yes, 3, 0, 0.637204, -16, coloured, 11, yes, 1, 0, NaN, NaN6, coloured, 11, yes, 2, 1, NaN, NaN6, coloured, 11, yes, 3, 0, 0.713294, -16, coloured, 12, no, 1, 1, 1.123221, -16, coloured, 12, no, 2, 0, 1.403906, 16, coloured, 12, no, 3, 0, 0.856011, -16, coloured, 12, no, 4, 1, 0.522751, 16, coloured, 13, no, 1, 0, 0.405619, -16, coloured, 13, no, 2, 1, 2.002117, 36, coloured, 13, no, 3, 0, 0.586113, -16, coloured, 13, no, 4, 0, 0.480962, -16, coloured, 13, no, 5, 0, 0.404454, -16, coloured, 14, no, 1, 0, 0.408701, -16, coloured, 14, no, 2, 1, 0.459851, -16, coloured, 14, no, 3, 1, 0.826823, 16, coloured, 14, no, 4, 1, 0.497828, 16, coloured, 14, no, 5, 1, 0.417817, 16, coloured, 15, no, 1, 1, 0.617886, -16, coloured, 15, no, 2, 0, 0.788472, -16, coloured, 15, no, 3, 1, 0.543686, 16, coloured, 16, no, 1, 0, 0.494306, -16, coloured, 16, no, 2, 1, 0.782168, 16, coloured, 16, no, 3, 1, 0.481018, 16, coloured, 16, no, 4, 1, 0.358648, 16, coloured, 16, no, 5, 0, 0.426248, -16, coloured, 17, yes, 1, 1, NaN, NaN6, coloured, 17, yes, 2, 1, NaN, NaN6, coloured, 17, yes, 3, 0, 0.477804, -16, coloured, 17, yes, 4, 1, 0.668538, 16, coloured, 18, no, 1, 1, 0.449997, 16, coloured, 18, no, 2, 1, 0.384196, 16, coloured, 18, no, 3, 0, 0.378547, -16, coloured, 18, no, 4, 0, 0.523833, -16, coloured, 19, no, 1, 0, 0.709372, -16, coloured, 19, no, 2, 0, 0.599462, -16, coloured, 19, no, 3, 0, 0.617852, -16, coloured, 19, no, 4, 0, 0.394457, -16, coloured, 19, no, 5, 0, 0.628880, -16, coloured, 20, no, 1, 1, 0.713443, 16, coloured, 20, no, 2, 1, 0.554003, 16, coloured, 20, no, 3, 0, 0.506382, -16, coloured, 21, no, 1, 0, 0.476280, -16, coloured, 21, no, 2, 1, 0.424064, 16, coloured, 21, no, 3, 1, 0.728449, 16, coloured, 21, no, 4, 0, 0.608295, -16, coloured, 22, yes, 1, 0, NaN, NaN6, coloured, 22, yes, 2, 1, NaN, NaN6, coloured, 22, yes, 3, 1, 0.567658, 16, coloured, 22, yes, 4, 0, 0.479819, -16, coloured, 23, yes, 1, 1, NaN, NaN6, coloured, 23, yes, 2, 0, NaN, NaN6, coloured, 23, yes, 3, 1, 0.616755, 16, coloured, 23, yes, 4, 1, 0.458231, 16, coloured, 23, yes, 5, 0, 0.509688, -16, coloured, 24, yes, 1, 0, NaN, NaN6, coloured, 24, yes, 2, 1, NaN, NaN6, coloured, 24, yes, 3, 0, 0.407378, -16, coloured, 24, yes, 4, 0, 0.584289, -16, coloured, 25, yes, 1, 1, NaN, NaN6, coloured, 25, yes, 2, 0, NaN, NaN6, coloured, 25, yes, 3, 0, 0.724381, -16, coloured, 25, yes, 4, 1, 0.610665, 16, coloured, 25, yes, 5, 0, 0.719955, -16, coloured, 26, no, 1, 0, 0.504544, -16, coloured, 26, no, 2, 1, 0.677708, 16, coloured, 26, no, 3, 1, 0.479990, 16, coloured, 26, no, 4, 1, 0.613691, 16, coloured, 26, no, 5, 0, 0.480186, -16, coloured, 27, no, 1, 1, 0.448771, 16, coloured, 27, no, 2, 1, 0.472924, 16, coloured, 27, no, 3, 0, 0.445268, -16, coloured, 27, no, 4, 1, 0.483413, 16, coloured, 27, no, 5, 0, 0.683584, -16, coloured, 28, yes, 1, 0, NaN, NaN6, coloured, 28, yes, 2, 1, NaN, NaN6, coloured, 28, yes, 3, 1, 0.497195, 16, coloured, 28, yes, 4, 0, 0.484750, -16, coloured, 29, yes, 1, 1, NaN, NaN6, coloured, 29, yes, 2, 0, NaN, NaN6, coloured, 29, yes, 3, 0, 0.469444, -16, coloured, 30, yes, 1, 1, NaN, NaN6, coloured, 30, yes, 2, 0, NaN, NaN6, coloured, 30, yes, 3, 1, 0.922967, 16, coloured, 30, yes, 4, 1, 0.443451, 17, coloured, 1, yes, 1, 1, NaN, NaN7, coloured, 1, yes, 2, 1, NaN, NaN7, coloured, 1, yes, 3, 1, 0.743711, 17, coloured, 1, yes, 4, 1, 0.392199, 17, coloured, 1, yes, 5, 0, 0.535144, -17, coloured, 2, yes, 1, 1, NaN, NaN7, coloured, 2, yes, 2, 0, NaN, NaN7, coloured, 2, yes, 3, 0, 0.604526, -17, coloured, 3, no, 1, 0, 2.001369, 37, coloured, 3, no, 2, 1, 0.573028, 17, coloured, 3, no, 3, 1, 0.456318, 17, coloured, 4, yes, 1, 0, NaN, NaN7, coloured, 4, yes, 2, 0, NaN, NaN7, coloured, 4, yes, 3, 0, 0.646194, -17, coloured, 4, yes, 4, 0, 0.680052, -17, coloured, 5, no, 1, 1, 0.556706, 17, coloured, 5, no, 2, 0, 0.476970, -17, coloured, 5, no, 3, 0, 0.711716, -17, coloured, 6, yes, 1, 1, NaN, NaN7, coloured, 6, yes, 2, 0, NaN, NaN7, coloured, 6, yes, 3, 0, 0.588847, -17, coloured, 6, yes, 4, 0, 0.644457, -17, coloured, 6, yes, 5, 0, 0.692632, -17, coloured, 7, no, 1, 0, 0.578192, -17, coloured, 7, no, 2, 0, 0.543657, -17, coloured, 7, no, 3, 0, 0.539866, -17, coloured, 7, no, 4, 1, 0.538712, 17, coloured, 7, no, 5, 0, 0.617030, -17, coloured, 8, yes, 1, 0, NaN, NaN7, coloured, 8, yes, 2, 0, NaN, NaN7, coloured, 8, yes, 3, 0, 0.557508, -17, coloured, 8, yes, 4, 1, 0.578897, 17, coloured, 8, yes, 5, 0, 0.653436, -17, coloured, 9, no, 1, 0, 0.587507, -17, coloured, 9, no, 2, 1, 0.493373, 17, coloured, 9, no, 3, 1, 0.635616, 17, coloured, 9, no, 4, 0, 0.556501, -17, coloured, 10, yes, 1, 1, NaN, NaN7, coloured, 10, yes, 2, 1, NaN, NaN7, coloured, 10, yes, 3, 1, 0.525382, 17, coloured, 10, yes, 4, 1, 0.461669, 17, coloured, 11, yes, 1, 1, NaN, NaN7, coloured, 11, yes, 2, 1, NaN, NaN7, coloured, 11, yes, 3, 1, 0.599102, 17, coloured, 11, yes, 4, 0, 0.605739, -17, coloured, 11, yes, 5, 1, 0.479990, 17, coloured, 12, no, 1, 0, 0.551791, -17, coloured, 12, no, 2, 0, 0.566909, -17, coloured, 12, no, 3, 0, 0.576928, -17, coloured, 13, no, 1, 0, 0.468154, -17, coloured, 13, no, 2, 0, 0.508479, -17, coloured, 13, no, 3, 1, 0.559964, 17, coloured, 13, no, 4, 0, 0.505967, -17, coloured, 13, no, 5, 1, 0.508541, 17, coloured, 14, no, 1, 1, 0.488279, 17, coloured, 14, no, 2, 1, 0.485304, 17, coloured, 14, no, 3, 0, 0.418496, -17, coloured, 14, no, 4, 0, 0.565675, -17, coloured, 14, no, 5, 0, 0.526006, -17, coloured, 15, no, 1, 0, 0.666534, -17, coloured, 15, no, 2, 0, 0.944134, -17, coloured, 15, no, 3, 0, 0.802803, -17, coloured, 15, no, 4, 0, 0.580552, -17, coloured, 16, no, 1, 0, 0.539222, -17, coloured, 16, no, 2, 1, 0.474223, 17, coloured, 16, no, 3, 0, 0.542615, -17, coloured, 17, yes, 1, 0, NaN, NaN7, coloured, 17, yes, 2, 1, NaN, NaN7, coloured, 17, yes, 3, 0, 0.446597, -17, coloured, 17, yes, 4, 0, 0.634232, -17, coloured, 18, no, 1, 0, 0.695137, -17, coloured, 18, no, 2, 0, 0.539377, -17, coloured, 18, no, 3, 0, 0.555832, -17, coloured, 19, no, 1, 1, 0.657147, 1